!Mini-Circuits Laboratory
!S-Parameters
!Model: LEE2-6+
!Run / Lot / Date Code: N/A / N/A / N/A
!Fixture: TB-621+ DC 1602
!Network Analyzer: PNA-X N5242A - 423 4 ports;  Serial number: 71404
!Date: 4/12/2016 at 7:58:06 AM
!S/N: Unit# 1
!Tested with: 
!
# Hz  S  dB  R  50
!Frequency    S11 dB        S11 Deg       S21 dB        S21 Deg       S12 dB        S12 Deg       S22 dB        S22 Deg       
10000000      -21.3787100   176.0851000   22.8122600    178.1391000   -24.7122500   0.7343065     -19.3031200   176.4431000   
20000000      -20.8793300   178.5674000   22.8022400    177.8581000   -24.7491100   -0.2439231    -18.7160100   177.8936000   
30000000      -21.0390500   179.0462000   22.8043700    176.8387000   -24.7727400   -0.8760505    -18.5411000   178.8036000   
40000000      -21.0910700   179.5809000   22.7895200    175.8881000   -24.7836400   -1.5347450    -18.4520600   179.6835000   
50000000      -21.0631000   178.2598000   22.7397000    174.9158000   -24.8015200   -2.1636850    -18.0490300   -178.4913000  
60000000      -21.0178100   177.2204000   22.7561100    174.2352000   -24.7829200   -2.7954170    -18.1522300   178.6456000   
70000000      -21.0629100   176.5504000   22.7579400    173.1603000   -24.7662000   -3.2781870    -18.3539600   178.8062000   
80000000      -21.1049100   175.9889000   22.7552000    172.1704000   -24.7622200   -3.8309150    -18.4086600   179.5557000   
90000000      -21.0932500   175.8440000   22.7435600    171.1844000   -24.7488400   -4.3637740    -18.4292000   179.9641000   
100000000     -21.0789200   175.0497000   22.7425700    170.1891000   -24.7431900   -4.9603210    -18.4505300   -179.5377000  
150000000     -21.1322900   172.7797000   22.7103200    165.3385000   -24.7717300   -7.3799390    -18.1313200   -179.7952000  
200000000     -21.2381600   170.1035000   22.6853500    160.5044000   -24.7535600   -9.6459430    -18.1227900   179.8777000   
250000000     -21.3035400   168.2698000   22.6560500    155.6789000   -24.7832800   -11.9933700   -17.7774400   178.7100000   
300000000     -21.3572800   165.5527000   22.6115300    150.8446000   -24.7657100   -14.1809900   -17.7637100   177.5195000   
350000000     -21.4523500   163.5301000   22.5744700    146.0490000   -24.7752400   -16.5790000   -17.5384700   176.6562000   
400000000     -21.5375300   160.9797000   22.5309300    141.3411000   -24.7495300   -18.7591200   -17.5059600   174.6034000   
450000000     -21.8155500   159.2665000   22.4794900    136.5821000   -24.7471300   -21.1357000   -17.2696400   173.1561000   
500000000     -21.8587100   156.7477000   22.4254500    131.8949000   -24.7248700   -23.5112800   -17.1254900   172.5461000   
550000000     -21.9794600   155.0082000   22.3623800    127.1891000   -24.7369800   -25.9282700   -16.7191900   170.9528000   
600000000     -22.0514000   152.6726000   22.2971200    122.5101000   -24.7289400   -28.2267800   -16.5154900   168.9504000   
650000000     -22.2597300   151.3918000   22.2275400    117.8359000   -24.6918000   -30.5480700   -16.4081600   167.6449000   
700000000     -22.4477600   150.7045000   22.1441200    113.1875000   -24.6688800   -32.8684800   -16.2160500   165.8132000   
750000000     -22.6274800   148.7804000   22.0781400    108.5893000   -24.6570700   -35.1762100   -16.0128800   163.5513000   
800000000     -22.7652900   147.9696000   21.9971400    103.9799000   -24.6516700   -37.4879800   -15.7906300   161.1761000   
850000000     -22.8284500   146.5407000   21.9198400    99.4308900    -24.6183400   -39.7247200   -15.6614700   158.6714000   
900000000     -23.0468500   146.1550000   21.8338100    94.8539300    -24.5945100   -42.0484000   -15.4870200   156.3280000   
950000000     -23.2558700   144.7403000   21.7465800    90.3716800    -24.5721100   -44.4275800   -15.3013700   154.0217000   
1000000000    -23.2652800   145.0376000   21.6586700    85.8967400    -24.5370300   -46.7838600   -15.1590100   151.6212000   
1050000000    -23.4697200   143.9642000   21.5639900    81.4207300    -24.5410400   -49.2486600   -14.8343500   148.9786000   
1100000000    -23.3163700   143.4471000   21.4713200    76.9673300    -24.5050500   -51.5661800   -14.7235800   146.3189000   
1150000000    -23.6481300   142.5569000   21.3728700    72.5154100    -24.4628200   -53.8548100   -14.6581300   143.8476000   
1200000000    -23.5633500   143.1560000   21.2782600    68.1525500    -24.4429900   -56.1921200   -14.5074800   140.8815000   
1250000000    -23.6326700   142.2445000   21.1790000    63.7673400    -24.3931900   -58.5958400   -14.3798300   138.4833000   
1300000000    -23.5082700   142.9079000   21.0794200    59.3896400    -24.3809400   -60.9137000   -14.2204000   135.0857000   
1350000000    -23.6382800   142.6304000   20.9744800    55.0598300    -24.3401700   -63.3238100   -14.0930600   132.4017000   
1400000000    -23.4086000   142.3759000   20.8711600    50.7384500    -24.2879500   -65.7617100   -14.0317800   129.9593000   
1450000000    -23.1724300   142.3184000   20.7670900    46.4814400    -24.2789800   -68.0587800   -13.8737600   126.4579000   
1500000000    -23.0986700   141.7267000   20.6628700    42.2240500    -24.2405400   -70.4826700   -13.7571800   123.5504000   
1550000000    -22.9456300   141.2061000   20.5498800    37.9794100    -24.1937500   -72.8752600   -13.6924800   120.6396000   
1600000000    -22.6906500   141.2471000   20.4477700    33.7857200    -24.1527600   -75.2458700   -13.6164100   117.6499000   
1650000000    -22.5270100   140.7562000   20.3431100    29.5672400    -24.1450900   -77.5723300   -13.4823800   113.9756000   
1700000000    -22.3182700   139.9238000   20.2339500    25.3701800    -24.0754400   -80.1025900   -13.4630100   111.5926000   
1750000000    -22.1055900   138.9226000   20.1220900    21.2268000    -24.0306200   -82.4643100   -13.3828400   108.5764000   
1800000000    -21.9044900   137.6216000   20.0131700    17.0815300    -24.0004300   -84.8174100   -13.3136100   105.1929000   
1850000000    -21.6366100   136.3460000   19.8999900    12.9361900    -23.9444400   -87.3313500   -13.2700900   102.4896000   
1900000000    -21.2614900   135.1710000   19.7891200    8.8350870     -23.9032100   -89.7021100   -13.2419800   99.1295200    
1950000000    -20.9695500   133.7246000   19.6823700    4.7452260     -23.8485500   -92.1399600   -13.1881600   96.0373800    
2000000000    -20.7328200   131.8793000   19.5728700    0.6998930     -23.8071500   -94.5731600   -13.1281400   92.9530200    
2050000000    -20.5599400   130.0033000   19.4614100    -3.3463730    -23.7521800   -96.9940700   -13.0945600   89.9128000    
2100000000    -20.2218700   127.9133000   19.3544400    -7.3432400    -23.6859200   -99.5903700   -13.0439600   87.1281100    
2150000000    -19.9816800   126.1974000   19.2409200    -11.3765000   -23.6505200   -102.0319000  -13.0098500   83.7054800    
2200000000    -19.6977700   123.6460000   19.1380600    -15.3124800   -23.6180200   -104.5196000  -12.9383100   80.4254500    
2250000000    -19.5110200   121.9085000   19.0230800    -19.3761900   -23.5402200   -107.0415000  -12.9752800   77.7135500    
2300000000    -19.2529900   119.5446000   18.9080300    -23.3203400   -23.4728100   -109.6769000  -12.9359000   74.9787100    
2350000000    -19.0444200   117.1064000   18.8085200    -27.2813300   -23.4564000   -112.0680000  -12.8499900   71.2339500    
2400000000    -18.8257600   115.0220000   18.6904800    -31.2187700   -23.3951500   -114.7059000  -12.8304500   68.4087400    
2450000000    -18.5684700   112.0744000   18.5895500    -35.1086600   -23.3504800   -117.1110000  -12.8099300   64.9717900    
2500000000    -18.3497000   109.4499000   18.4806400    -39.0279700   -23.2799200   -119.7635000  -12.7974800   62.1926000    
2550000000    -18.1426000   106.6282000   18.3788800    -42.8882200   -23.2488800   -122.2537000  -12.7407600   58.4862700    
2600000000    -18.0269300   103.8627000   18.2677100    -46.8344500   -23.1781300   -124.9030000  -12.7545400   55.8732100    
2650000000    -17.7336800   100.8592000   18.1642100    -50.6720300   -23.1422900   -127.3638000  -12.7186900   52.1140900    
2700000000    -17.5092300   98.1210900    18.0572700    -54.5521200   -23.0791900   -129.9851000  -12.7147200   49.2359100    
2750000000    -17.3447300   95.6121100    17.9519600    -58.3497900   -23.0380900   -132.5360000  -12.6771500   45.7264600    
2800000000    -17.2254500   92.4560300    17.8449200    -62.2380100   -22.9798000   -135.1260000  -12.6655600   42.7464300    
2850000000    -16.9852600   89.3726300    17.7392500    -66.0237300   -22.9185400   -137.7666000  -12.6745800   39.5736800    
2900000000    -16.8417800   86.5790800    17.6364200    -69.8635600   -22.8738400   -140.3216000  -12.6667300   36.1324800    
2950000000    -16.7019700   83.1757700    17.5325300    -73.6887400   -22.8049600   -143.0008000  -12.6512000   33.2659600    
3000000000    -16.5205900   80.0619600    17.4352300    -77.4312200   -22.7748000   -145.5007000  -12.6110100   29.5668400    
3050000000    -16.3774400   77.1219700    17.3278700    -81.2448800   -22.7058000   -148.2355000  -12.6065000   26.7937000    
3100000000    -16.1968500   73.8829200    17.2301200    -84.9893300   -22.6677400   -150.7956000  -12.5828400   23.0681800    
3150000000    -16.0902700   70.9138100    17.1265300    -88.7969800   -22.6011000   -153.4708000  -12.6065100   20.1591100    
3200000000    -15.9186000   67.4846700    17.0233700    -92.5229400   -22.5593400   -156.0694000  -12.5870400   16.5148800    
3250000000    -15.7772900   64.5286300    16.9320600    -96.2646200   -22.5015000   -158.8678000  -12.5475000   13.6953800    
3300000000    -15.6111700   60.8174600    16.8305200    -99.9653900   -22.4428100   -161.5618000  -12.5465500   10.4913100    
3350000000    -15.5338400   57.8204800    16.7299700    -103.7362000  -22.3873400   -164.1294000  -12.5518700   7.1629410     
3400000000    -15.3892100   54.8464300    16.6334300    -107.4668000  -22.3367000   -166.8423000  -12.5338900   3.8627510     
3450000000    -15.3065600   51.2157800    16.5364700    -111.1490000  -22.2835700   -169.5141000  -12.5286300   0.5276588     
3500000000    -15.1378000   48.1486000    16.4372500    -114.9227000  -22.2247300   -172.2473000  -12.5379200   -2.5544230    
3550000000    -15.0223400   44.2084400    16.3455300    -118.5077000  -22.1891000   -174.7447000  -12.5266300   -6.4179840    
3600000000    -14.9002900   41.0862100    16.2470600    -122.2440000  -22.1152300   -177.5558000  -12.5407600   -9.4097930    
3650000000    -14.7294200   37.6068300    16.1520800    -125.9085000  -22.0610200   179.6886000   -12.5364300   -12.3932900   
3700000000    -14.6578800   34.0153900    16.0658200    -129.6314000  -22.0024500   176.9379000   -12.4983400   -15.7208000   
3750000000    -14.5377000   30.8186300    15.9608500    -133.2503000  -21.9720400   174.3747000   -12.4989100   -19.4302800   
3800000000    -14.4755800   27.1919400    15.8741900    -136.9593000  -21.9225300   171.6561000   -12.4807900   -22.8516800   
3850000000    -14.3478100   23.8798500    15.7800700    -140.6010000  -21.8453600   168.7932000   -12.5061400   -25.6226700   
3900000000    -14.2296600   20.2421600    15.6976100    -144.2210000  -21.8054800   166.2132000   -12.4725600   -29.4730100   
3950000000    -14.1668300   17.3233700    15.5896400    -147.9396000  -21.7470700   163.3377000   -12.4898900   -32.4475900   
4000000000    -14.0518700   13.3242300    15.5139900    -151.5281000  -21.7138400   160.7177000   -12.4417200   -35.9951100   
4050000000    -13.9478300   9.8177050     15.4178500    -155.1799000  -21.6493100   157.7272000   -12.4496400   -38.9314500   
4100000000    -13.8095300   6.2379360     15.3323800    -158.7667000  -21.6181200   155.2652000   -12.4231500   -42.8544500   
4150000000    -13.7284800   2.6957580     15.2465700    -162.4754000  -21.5628900   152.3398000   -12.4127100   -45.9651300   
4200000000    -13.6388400   -0.7451338    15.1461600    -166.0397000  -21.5148100   149.6445000   -12.4121900   -49.2514300   
4250000000    -13.6253100   -4.2978040    15.0630900    -169.7401000  -21.4558100   146.8243000   -12.4009700   -52.4352400   
4300000000    -13.4266900   -7.8535420    14.9789300    -173.2477000  -21.4140000   144.0365000   -12.3843700   -55.7947200   
4350000000    -13.3833700   -11.4248800   14.8961400    -176.9034000  -21.3695900   141.3217000   -12.3637000   -59.3812500   
4400000000    -13.2862100   -15.0453400   14.8013800    179.5416000   -21.3221700   138.4306000   -12.3605100   -62.4212000   
4450000000    -13.2017000   -18.5844900   14.7235500    175.9415000   -21.2749400   135.8106000   -12.3543500   -65.9547300   
4500000000    -13.1179900   -22.2207400   14.6352100    172.2881000   -21.2304200   132.9797000   -12.3326600   -69.4231900   
4550000000    -13.0066700   -25.9353000   14.5505700    168.7975000   -21.1895200   130.2626000   -12.3201700   -72.9325300   
4600000000    -12.9530500   -29.3131300   14.4625700    165.1433000   -21.1307700   127.2876000   -12.2995100   -75.9312300   
4650000000    -12.8157200   -33.3149100   14.3877400    161.5886000   -21.0986300   124.5492000   -12.2821200   -79.3035900   
4700000000    -12.7681700   -36.4616400   14.2999700    157.9563000   -21.0543600   121.7926000   -12.2567200   -82.8081400   
4750000000    -12.7066000   -40.3282200   14.2158700    154.4209000   -21.0113500   118.9185000   -12.2311900   -86.0835300   
4800000000    -12.5815000   -44.1122800   14.1423000    150.8511000   -20.9653200   116.2185000   -12.2179800   -89.6551700   
4850000000    -12.5017800   -47.5061600   14.0521800    147.2705000   -20.9236700   113.3262000   -12.1975200   -92.8903200   
4900000000    -12.4434000   -51.3166800   13.9831800    143.7485000   -20.8770700   110.6228000   -12.1889600   -96.3356100   
4950000000    -12.3467600   -54.9497800   13.8978400    140.1547000   -20.8253300   107.7562000   -12.1715000   -99.5711500   
5000000000    -12.2711300   -58.6928900   13.8215500    136.5921000   -20.7868800   104.9552000   -12.1532500   -102.9770000  
5050000000    -12.2006300   -62.1184600   13.7279600    133.0741000   -20.7405400   102.0340000   -12.1399500   -106.1251000  
5100000000    -12.0922600   -65.9420500   13.6522800    129.5320000   -20.7182000   99.3640300    -12.1040000   -109.9032000  
5150000000    -12.0144800   -69.3062400   13.5745400    125.9624000   -20.6637200   96.3938400    -12.0937900   -112.9042000  
5200000000    -11.9666100   -73.1038100   13.4985000    122.4374000   -20.6214100   93.7300900    -12.0668000   -116.5297000  
5250000000    -11.8673100   -76.8222100   13.4186600    118.8710000   -20.5674100   90.7684100    -12.0709600   -119.5073000  
5300000000    -11.7857700   -80.2860300   13.3301100    115.3252000   -20.5299200   87.9982100    -12.0563300   -123.1197000  
5350000000    -11.7159400   -83.8842500   13.2642300    111.7889000   -20.4914300   85.1528300    -12.0228800   -126.1992000  
5400000000    -11.6440400   -87.7660800   13.1802000    108.2760000   -20.4526300   82.2531100    -11.9865300   -129.5294000  
5450000000    -11.5946300   -91.1592900   13.1073400    104.7650000   -20.4076400   79.4362000    -11.9801500   -132.8843000  
5500000000    -11.5092700   -95.0519700   13.0295000    101.2240000   -20.3675100   76.6444200    -11.9628700   -136.3129000  
5550000000    -11.4079300   -98.5271800   12.9490900    97.7078600    -20.3275300   73.8446600    -11.9290700   -139.7179000  
5600000000    -11.3474000   -101.9425000  12.8735100    94.1743900    -20.2863400   70.8238800    -11.9135700   -142.6363000  
5650000000    -11.2796800   -105.6719000  12.7950700    90.7169400    -20.2502000   67.9832700    -11.9021400   -145.9586000  
5700000000    -11.1924000   -109.3994000  12.7296900    87.1338600    -20.2142600   65.1725400    -11.8547700   -149.2716000  
5750000000    -11.1305800   -113.0520000  12.6495200    83.5954200    -20.1792400   62.2659100    -11.8255600   -152.4807000  
5800000000    -11.0585900   -116.4290000  12.5816100    80.1704600    -20.1392300   59.4776800    -11.8030000   -155.7170000  
5850000000    -10.9682000   -119.9215000  12.4998100    76.5785100    -20.0985000   56.5582200    -11.7910600   -159.0181000  
5900000000    -10.9036600   -123.6270000  12.4306500    73.1245300    -20.0637800   53.8192100    -11.7577400   -162.4767000  
5950000000    -10.8184700   -127.4448000  12.3594900    69.5973400    -20.0211200   50.7312500    -11.7418000   -165.4822000  
6000000000    -10.7355900   -131.0728000  12.2815200    66.1062900    -19.9860300   47.9079400    -11.6918100   -168.7838000  
6050000000    -10.7042500   -134.7559000  12.2047200    62.5760000    -19.9602600   44.9865600    -11.6659200   -171.9864000  
6100000000    -10.5874700   -138.2414000  12.1353500    59.0918900    -19.9313000   42.2741400    -11.6071700   -175.4483000  
6150000000    -10.5562000   -141.5986000  12.0595600    55.5890500    -19.8966300   39.3049300    -11.5952300   -178.4825000  
6200000000    -10.4630400   -145.2932000  11.9866000    52.1265700    -19.8545100   36.4429500    -11.5711600   178.2122000   
6250000000    -10.3876300   -148.7704000  11.9150900    48.6239200    -19.8239300   33.5303800    -11.5436000   175.1403000   
6300000000    -10.3406000   -152.2887000  11.8454300    45.0897200    -19.7904300   30.6205100    -11.5002700   171.8855000   
6350000000    -10.2513600   -156.1192000  11.7774000    41.5942900    -19.7635000   27.6744600    -11.4460600   168.8385000   
6400000000    -10.2035000   -159.5914000  11.7036400    38.1610500    -19.7432700   24.8405100    -11.4275200   165.5809000   
6450000000    -10.0953600   -163.2026000  11.6343700    34.6498300    -19.7091800   22.0409000    -11.3785500   162.2490000   
6500000000    -10.0551700   -166.6948000  11.5658600    31.1655700    -19.6731700   19.1823500    -11.3518500   159.0863000   
6550000000    -9.9805560    -170.2542000  11.4947300    27.7094600    -19.6429200   16.3005500    -11.3130300   155.8760000   
6600000000    -9.9306710    -173.7717000  11.4227400    24.1950200    -19.6045100   13.3228100    -11.2966400   152.8804000   
6650000000    -9.8252460    -177.2404000  11.3537300    20.7651500    -19.5844900   10.4534500    -11.2451300   149.7025000   
6700000000    -9.7633120    179.2788000   11.2836600    17.3067000    -19.5518000   7.5966410     -11.2193200   146.6051000   
6750000000    -9.7140830    175.7594000   11.2115900    13.8055800    -19.5329500   4.7707280     -11.1634900   143.3125000   
6800000000    -9.6633470    172.1334000   11.1497500    10.3173000    -19.5000900   1.8350820     -11.1332100   140.2661000   
6850000000    -9.5818070    168.7778000   11.0720800    6.8652490     -19.4672600   -0.9624902    -11.1058900   136.9317000   
6900000000    -9.5268240    165.0173000   11.0030500    3.3708690     -19.4357000   -3.9073040    -11.0514300   133.8117000   
6950000000    -9.4412620    161.6018000   10.9351200    -0.1127242    -19.4085400   -6.8421970    -11.0197100   130.8574000   
7000000000    -9.3869550    158.0192000   10.8744700    -3.5609790    -19.3819700   -9.6710330    -10.9699400   127.6516000   
7050000000    -9.3273970    154.5488000   10.7957100    -7.0115340    -19.3599600   -12.5836900   -10.9387200   124.5798000   
7100000000    -9.2595520    151.0491000   10.7335000    -10.4831600   -19.3338300   -15.3639600   -10.8867800   121.3025000   
7150000000    -9.1767790    147.5075000   10.6571100    -13.9396000   -19.3054200   -18.3503600   -10.8493600   118.2768000   
7200000000    -9.1162990    144.0814000   10.5936000    -17.4267100   -19.2731700   -21.1582700   -10.8087500   115.1305000   
7250000000    -9.0744510    140.5053000   10.5262200    -20.8656900   -19.2525500   -24.1073900   -10.7651500   112.0990000   
7300000000    -8.9898570    136.8818000   10.4560900    -24.2801100   -19.2267700   -27.0411800   -10.7254100   109.0560000   
7350000000    -8.9400090    133.5253000   10.3877700    -27.7937600   -19.2092400   -29.9347400   -10.6717800   105.9935000   
7400000000    -8.8768290    130.0562000   10.3186100    -31.2168800   -19.1799100   -32.7906100   -10.6291400   102.9082000   
7450000000    -8.8235210    126.6327000   10.2467100    -34.6891400   -19.1468300   -35.6244100   -10.5968900   99.6820400    
7500000000    -8.7572610    123.0497000   10.1858300    -38.1547700   -19.1175900   -38.5830900   -10.5615400   96.7561000    
7550000000    -8.6887730    119.5116000   10.1225100    -41.5438800   -19.0850400   -41.4526300   -10.5216100   93.6308700    
7600000000    -8.6480210    116.0975000   10.0438900    -44.9761700   -19.0600400   -44.3974900   -10.4796200   90.6876900    
7650000000    -8.5851550    112.6111000   9.9862030     -48.4880800   -19.0470100   -47.3023900   -10.4245200   87.6531300    
7700000000    -8.5075320    109.1567000   9.9167480     -51.9399600   -19.0211400   -50.1926300   -10.3820600   84.6536500    
7750000000    -8.4501370    105.7423000   9.8499400     -55.3186000   -18.9997100   -53.0046500   -10.3357600   81.4379800    
7800000000    -8.3960080    102.2085000   9.7842310     -58.7819200   -18.9705000   -55.9426300   -10.2999700   78.5092000    
7850000000    -8.3392190    98.7629200    9.7174490     -62.2485300   -18.9494900   -58.7911900   -10.2490500   75.4146400    
7900000000    -8.2789730    95.3846500    9.6507100     -65.6547500   -18.9298600   -61.8128500   -10.2101100   72.5537600    
7950000000    -8.2066830    91.8709800    9.5864050     -69.1159000   -18.9106100   -64.6215700   -10.1548400   69.5618400    
8000000000    -8.1651670    88.4797100    9.5158690     -72.5617600   -18.8863500   -67.4452600   -10.0964300   66.4077400    
8050000000    -8.1062470    84.9873400    9.4516470     -75.9795500   -18.8680300   -70.3025200   -10.0561200   63.3789300    
8100000000    -8.0543670    81.5099700    9.3886490     -79.4224000   -18.8317300   -73.1805200   -10.0119500   60.2969100    
8150000000    -8.0025370    78.1114000    9.3207820     -82.8474000   -18.8073800   -76.0744300   -9.9860670    57.3447800    
8200000000    -7.9387690    74.7096200    9.2543760     -86.2744000   -18.7885800   -78.9994100   -9.9415860    54.2948100    
8250000000    -7.8933810    71.1691400    9.1868180     -89.6933100   -18.7704300   -81.9171300   -9.8918080    51.3703500    
8300000000    -7.8193420    67.7595700    9.1218250     -93.1084400   -18.7441200   -84.7627000   -9.8569180    48.2964900    
8350000000    -7.7818370    64.3092000    9.0556040     -96.5588500   -18.7219700   -87.7073600   -9.7978280    45.3506600    
8400000000    -7.7157220    60.8687400    8.9863560     -100.0043000  -18.6924700   -90.5454800   -9.7743170    42.2286700    
8450000000    -7.6746800    57.5370800    8.9272810     -103.3856000  -18.6711300   -93.4288800   -9.7203390    39.2352900    
8500000000    -7.6024720    54.0370100    8.8633630     -106.8281000  -18.6561100   -96.4083600   -9.6924500    36.3730500    
8550000000    -7.5500250    50.6919700    8.7953490     -110.2287000  -18.6261300   -99.2841800   -9.6562910    33.3264200    
8600000000    -7.5018550    47.1737500    8.7284820     -113.7183000  -18.6131700   -102.2327000  -9.6138100    30.3994900    
8650000000    -7.4525620    43.8600100    8.6671170     -117.1040000  -18.5869700   -105.1083000  -9.5635330    27.3490000    
8700000000    -7.4004590    40.3249400    8.5987640     -120.5490000  -18.5653000   -107.9920000  -9.5306330    24.3924900    
8750000000    -7.3281720    37.0251400    8.5298720     -123.9390000  -18.5416400   -110.8727000  -9.4937580    21.3519900    
8800000000    -7.2932220    33.5479200    8.4684180     -127.3739000  -18.5175100   -113.7841000  -9.4492160    18.3324100    
8850000000    -7.2364240    30.1424100    8.4047500     -130.7644000  -18.4985400   -116.7035000  -9.4121150    15.4508100    
8900000000    -7.1979970    26.6791300    8.3347620     -134.2173000  -18.4835000   -119.5850000  -9.3756290    12.4571000    
8950000000    -7.1464820    23.2662700    8.2634240     -137.6346000  -18.4644700   -122.5688000  -9.3364470    9.4846570     
9000000000    -7.0758400    19.9046100    8.2018310     -141.0410000  -18.4404900   -125.3905000  -9.3004000    6.3982180     
9050000000    -7.0376380    16.5672500    8.1304240     -144.4271000  -18.4190300   -128.3113000  -9.2685880    3.4254680     
9100000000    -6.9843360    13.1725800    8.0674490     -147.8316000  -18.4011400   -131.2421000  -9.2298150    0.4782495     
9150000000    -6.9402960    9.7782370     8.0034180     -151.2423000  -18.3797400   -134.1718000  -9.1908360    -2.4647920    
9200000000    -6.8874240    6.4016670     7.9444390     -154.6611000  -18.3697500   -137.0817000  -9.1479490    -5.4317860    
9250000000    -6.8460380    2.9983680     7.8694930     -158.0628000  -18.3502100   -139.9418000  -9.1204980    -8.3447170    
9300000000    -6.7946880    -0.4173003    7.8060990     -161.5132000  -18.3348300   -142.9025000  -9.0743140    -11.4022200   
9350000000    -6.7411590    -3.8246810    7.7334710     -164.8493000  -18.3135000   -145.7904000  -9.0444200    -14.4504000   
9400000000    -6.6905440    -7.0871200    7.6670610     -168.2613000  -18.3011300   -148.6734000  -9.0093670    -17.3907800   
9450000000    -6.6511130    -10.5720700   7.6019710     -171.6385000  -18.2870600   -151.6083000  -8.9702640    -20.3675200   
9500000000    -6.5808670    -13.8728600   7.5382200     -175.0617000  -18.2667400   -154.5345000  -8.9263390    -23.3344000   
9550000000    -6.5550710    -17.2351800   7.4733720     -178.4599000  -18.2522800   -157.3985000  -8.8965680    -26.3519400   
9600000000    -6.4897550    -20.7159200   7.4036670     178.1114000   -18.2312800   -160.2999000  -8.8499650    -29.4713300   
9650000000    -6.4460760    -24.0754500   7.3373410     174.7070000   -18.2239500   -163.1809000  -8.8118880    -32.3354600   
9700000000    -6.4086650    -27.4664100   7.2636390     171.3665000   -18.2007600   -166.1484000  -8.7822780    -35.3659900   
9750000000    -6.3478150    -30.7219400   7.1965220     167.9549000   -18.1820400   -168.9832000  -8.7386040    -38.3816000   
9800000000    -6.3082080    -34.0893400   7.1354740     164.5510000   -18.1716900   -171.8847000  -8.7056770    -41.3400900   
9850000000    -6.2457780    -37.4149400   7.0672940     161.1506000   -18.1605400   -174.8267000  -8.6694470    -44.3920500   
9900000000    -6.2010960    -40.7937400   6.9979850     157.7957000   -18.1382900   -177.6529000  -8.6366830    -47.4065600   
9950000000    -6.1532860    -44.1140700   6.9355110     154.3870000   -18.1205200   179.4164000   -8.5938960    -50.3647200   
10000000000   -6.1158880    -47.4194300   6.8613480     150.9868000   -18.1132800   176.5127000   -8.5585150    -53.4246100   
10050000000   -6.0564110    -50.7368000   6.7972810     147.6125000   -18.0961900   173.6146000   -8.5273660    -56.3708500   
10100000000   -6.0178920    -54.0322400   6.7213440     144.2471000   -18.0845100   170.7216000   -8.4893500    -59.3686700   
10150000000   -5.9794670    -57.3403500   6.6574220     140.8960000   -18.0681500   167.8650000   -8.4545710    -62.3967500   
10200000000   -5.9233790    -60.6777900   6.5858650     137.5243000   -18.0625700   164.8709000   -8.4095240    -65.3532700   
10250000000   -5.8809710    -64.0225200   6.5190940     134.1121000   -18.0472700   162.0441000   -8.3805760    -68.3616200   
10300000000   -5.8370190    -67.2493100   6.4521860     130.7292000   -18.0358700   159.1242000   -8.3354380    -71.3469000   
10350000000   -5.7939130    -70.6396200   6.3739980     127.3483000   -18.0271900   156.2010000   -8.2900930    -74.3682600   
10400000000   -5.7339610    -73.9494400   6.3074770     123.9318000   -18.0199900   153.3104000   -8.2590540    -77.3387500   
10450000000   -5.6972770    -77.2090000   6.2316110     120.5887000   -18.0022900   150.3779000   -8.2043580    -80.2766300   
10500000000   -5.6553020    -80.5037700   6.1613720     117.2285000   -17.9914000   147.5011000   -8.1790200    -83.2425700   
10550000000   -5.6075070    -83.6041100   6.0881420     113.8814000   -17.9873500   144.6527000   -8.1334460    -86.1508200   
10600000000   -5.5522650    -86.9595700   6.0269580     110.4927000   -17.9705600   141.7527000   -8.1004220    -89.1467300   
10650000000   -5.5122450    -90.1525600   5.9504120     107.1521000   -17.9712100   138.8523000   -8.0556330    -92.1168400   
10700000000   -5.4747790    -93.4381900   5.8659610     103.7761000   -17.9631400   136.0204000   -8.0245790    -95.0334200   
10750000000   -5.4386280    -96.5184800   5.8056650     100.4156000   -17.9572600   133.0836000   -7.9861190    -98.0174900   
10800000000   -5.3963140    -99.9204800   5.7341290     97.0577200    -17.9422800   130.2218000   -7.9468460    -100.9010000  
10850000000   -5.3500580    -103.0775000  5.6559790     93.7220800    -17.9283500   127.3732000   -7.9183090    -103.9175000  
10900000000   -5.3211290    -106.2629000  5.5825540     90.3738600    -17.9163200   124.4470000   -7.8681970    -106.8268000  
10950000000   -5.2709310    -109.5118000  5.5175310     87.0202300    -17.9217600   121.5820000   -7.8422360    -109.8118000  
11000000000   -5.2365170    -112.6427000  5.4370890     83.6822500    -17.9086900   118.6811000   -7.7907030    -112.7255000  
11050000000   -5.1940460    -115.8131000  5.3637710     80.3668800    -17.8977900   115.8889000   -7.7674600    -115.6372000  
11100000000   -5.1626580    -119.0252000  5.2872780     77.0390100    -17.8875000   112.9506000   -7.7154560    -118.5929000  
11150000000   -5.1192360    -122.2540000  5.2205480     73.7098600    -17.8778600   110.1194000   -7.6903030    -121.5130000  
11200000000   -5.0834630    -125.3483000  5.1488390     70.3964300    -17.8801100   107.2348000   -7.6415370    -124.4476000  
11250000000   -5.0442480    -128.5116000  5.0661890     67.1437000    -17.8677500   104.4695000   -7.6194660    -127.3866000  
11300000000   -5.0103620    -131.5665000  5.0008720     63.7689600    -17.8663100   101.5400000   -7.5705170    -130.2837000  
11350000000   -4.9745070    -134.7846000  4.9247750     60.5705300    -17.8439900   98.8025300    -7.5307090    -133.1226000  
11400000000   -4.9411120    -137.8762000  4.8539280     57.1931000    -17.8414800   95.8672500    -7.4988810    -136.1228000  
11450000000   -4.9022910    -141.0384000  4.7802700     53.9514300    -17.8259800   93.0912400    -7.4601410    -138.9344000  
11500000000   -4.8602780    -144.2124000  4.7060810     50.5872300    -17.8149500   90.2048600    -7.4278480    -141.9978000  
11550000000   -4.8368740    -147.3055000  4.6382050     47.3134300    -17.8100000   87.3893000    -7.3827360    -144.7929000  
11600000000   -4.8017180    -150.4331000  4.5635780     44.0657600    -17.7943100   84.6257400    -7.3662700    -147.6885000  
11650000000   -4.7704400    -153.4276000  4.4908720     40.7381500    -17.7953800   81.7219500    -7.3209500    -150.6197000  
11700000000   -4.7269370    -156.6046000  4.4178890     37.5035300    -17.7794900   78.9590800    -7.2981490    -153.4896000  
11750000000   -4.6988990    -159.6710000  4.3447050     34.1625300    -17.7601400   76.1011000    -7.2467570    -156.3730000  
11800000000   -4.6629290    -162.7602000  4.2867800     30.8905200    -17.7502400   73.2254300    -7.2196180    -159.2750000  
11850000000   -4.6414670    -165.8301000  4.2095380     27.6554000    -17.7414100   70.4153500    -7.1838220    -162.1319000  
11900000000   -4.6052800    -168.8809000  4.1362860     24.3747800    -17.7285700   67.6142700    -7.1500410    -164.9852000  
11950000000   -4.5889640    -172.0063000  4.0658420     21.1054600    -17.7217900   64.7695700    -7.1303210    -167.9320000  
12000000000   -4.5522150    -175.1135000  3.9898740     17.8113400    -17.7048400   61.9557200    -7.0903310    -170.7227000  
12050000000   -4.5350040    -178.0932000  3.9301830     14.5058100    -17.6890300   59.1612200    -7.0599210    -173.6490000  
12100000000   -4.5112320    178.8133000   3.8572910     11.2454300    -17.6820600   56.2887600    -7.0214590    -176.4214000  
12150000000   -4.4691890    175.8009000   3.7929210     8.0354750     -17.6609000   53.5039000    -7.0057110    -179.3152000  
12200000000   -4.4530740    172.8181000   3.7364060     4.7486960     -17.6470200   50.6463700    -6.9698860    177.8197000   
12250000000   -4.4279640    169.6333000   3.6553090     1.4487370     -17.6391100   47.8740900    -6.9439570    174.9074000   
12300000000   -4.4127030    166.7110000   3.5854860     -1.8128750    -17.6229700   44.9955800    -6.9092050    172.0631000   
12350000000   -4.3712750    163.4990000   3.5118470     -5.1147440    -17.6034900   42.1558500    -6.8840110    169.2189000   
12400000000   -4.3517440    160.6490000   3.4532100     -8.2347320    -17.5854400   39.3954300    -6.8576920    166.3979000   
12450000000   -4.3288720    157.5557000   3.3855600     -11.5283100   -17.5774100   36.5140800    -6.8239400    163.5298000   
12500000000   -4.3119050    154.6033000   3.3125700     -14.7384400   -17.5565800   33.7561500    -6.8048140    160.6952000   
12550000000   -4.2893140    151.4618000   3.2509030     -18.0559400   -17.5397300   30.8275000    -6.7611810    157.8648000   
12600000000   -4.2624870    148.4576000   3.1765300     -21.2578700   -17.5239600   28.0992000    -6.7463580    154.9994000   
12650000000   -4.2506210    145.4655000   3.1094200     -24.5622300   -17.5101400   25.2682400    -6.7169640    152.1714000   
12700000000   -4.2264590    142.5284000   3.0427760     -27.7252200   -17.4908000   22.4417500    -6.6923120    149.2268000   
12750000000   -4.2069390    139.4520000   2.9793450     -31.0289000   -17.4735300   19.6011000    -6.6666300    146.4158000   
12800000000   -4.1945490    136.5030000   2.9110280     -34.1937600   -17.4564700   16.8089600    -6.6315980    143.5732000   
12850000000   -4.1659590    133.4540000   2.8455190     -37.4624900   -17.4339800   13.9380000    -6.6175040    140.6708000   
12900000000   -4.1533320    130.4096000   2.7768380     -40.6965300   -17.4198000   11.1357300    -6.5784040    137.8578000   
12950000000   -4.1243490    127.4748000   2.7149270     -43.8757400   -17.3965600   8.3315660     -6.5571770    134.9950000   
13000000000   -4.1184620    124.5172000   2.6529650     -47.1246000   -17.3893000   5.5108660     -6.5227980    132.1959000   
13050000000   -4.0988380    121.5328000   2.5825700     -50.3382300   -17.3571000   2.7668290     -6.5050300    129.3797000   
13100000000   -4.0777080    118.5979000   2.5185940     -53.5841400   -17.3426500   -0.1112869    -6.4722310    126.4715000   
13150000000   -4.0639690    115.5327000   2.4589620     -56.7886800   -17.3187900   -2.8928780    -6.4538500    123.7134000   
13200000000   -4.0444070    112.6450000   2.3983110     -59.9818600   -17.2972300   -5.7271640    -6.4258820    120.7857000   
13250000000   -4.0256050    109.5711000   2.3390050     -63.2323300   -17.2752200   -8.5815030    -6.3953170    118.0134000   
13300000000   -4.0065840    106.5653000   2.2744110     -66.4401400   -17.2470700   -11.3609900   -6.3793100    115.0726000   
13350000000   -3.9986940    103.6242000   2.2066020     -69.6403100   -17.2273600   -14.2100700   -6.3404690    112.2185000   
13400000000   -3.9875140    100.5776000   2.1473560     -72.8923800   -17.2059900   -17.0235800   -6.3345810    109.3290000   
13450000000   -3.9631350    97.6045000    2.0885720     -76.1012100   -17.1758700   -19.8304400   -6.2871290    106.4206000   
13500000000   -3.9532050    94.6226700    2.0249420     -79.3092600   -17.1590100   -22.6585700   -6.2782290    103.6215000   
13550000000   -3.9518670    91.6607200    1.9627610     -82.5667400   -17.1380700   -25.4793200   -6.2437930    100.6562000   
13600000000   -3.9242500    88.5317700    1.9002900     -85.7398800   -17.1051400   -28.3389800   -6.2245920    97.8129500    
13650000000   -3.9201930    85.6582700    1.8427240     -88.9742500   -17.0928700   -31.1320000   -6.2013580    94.8391900    
13700000000   -3.8982930    82.6021100    1.7798100     -92.1199300   -17.0595500   -33.9005200   -6.1695930    92.0235400    
13750000000   -3.8897260    79.6711300    1.7187850     -95.3944900   -17.0381500   -36.8007400   -6.1523660    89.0542400    
13800000000   -3.8825020    76.6497900    1.6609020     -98.6437200   -17.0148500   -39.6247000   -6.1179380    86.1826400    
13850000000   -3.8555360    73.6059600    1.6063180     -101.8550000  -16.9729600   -42.4802200   -6.1059400    83.2134100    
13900000000   -3.8599460    70.6122800    1.5475360     -105.1087000  -16.9600500   -45.3423000   -6.0638010    80.2577000    
13950000000   -3.8305580    67.5632100    1.4868740     -108.2911000  -16.9194600   -48.1544300   -6.0470340    77.4959100    
14000000000   -3.8254500    64.6433000    1.4336800     -111.5164000  -16.8991400   -50.9992900   -6.0189490    74.4531600    
14050000000   -3.8038390    61.5592000    1.3765530     -114.7184000  -16.8717300   -53.8314500   -5.9983050    71.6016900    
14100000000   -3.7922330    58.6445800    1.3140790     -118.0018000  -16.8503300   -56.7169800   -5.9713780    68.6515600    
14150000000   -3.7866330    55.5921100    1.2572610     -121.1982000  -16.8189300   -59.5933700   -5.9418820    65.6809000    
14200000000   -3.7782310    52.6097400    1.2006600     -124.4008000  -16.7942200   -62.3696000   -5.9193980    62.8211800    
14250000000   -3.7598610    49.5267000    1.1437410     -127.6193000  -16.7591300   -65.2426600   -5.8871070    59.8333200    
14300000000   -3.7554450    46.6032600    1.0866540     -130.8465000  -16.7422000   -68.1397900   -5.8593830    56.9216000    
14350000000   -3.7297610    43.5581100    1.0356800     -134.1406000  -16.7048500   -70.9740700   -5.8324680    53.9577100    
14400000000   -3.7250310    40.5493400    0.9807782     -137.3138000  -16.6751500   -73.8060500   -5.8040940    51.0028100    
14450000000   -3.7104860    37.5140400    0.9208366     -140.5948000  -16.6522200   -76.6055000   -5.7832040    48.1830700    
14500000000   -3.7130320    34.4633000    0.8572854     -143.7862000  -16.6184600   -79.4764900   -5.7500610    45.1572500    
14550000000   -3.7006770    31.4988400    0.7996389     -146.9552000  -16.5890400   -82.3507300   -5.7299050    42.2245600    
14600000000   -3.6834960    28.4998600    0.7479138     -150.1753000  -16.5593700   -85.1483200   -5.7052340    39.2580200    
14650000000   -3.6846840    25.4746500    0.6993431     -153.4270000  -16.5297700   -88.0610000   -5.6847960    36.2892000    
14700000000   -3.6640700    22.4433500    0.6440721     -156.6405000  -16.4987400   -90.8787400   -5.6603820    33.2836600    
14750000000   -3.6573230    19.3515500    0.5824519     -159.8958000  -16.4642900   -93.7074000   -5.6272050    30.3356900    
14800000000   -3.6522890    16.3288200    0.5273666     -163.1668000  -16.4401100   -96.5763900   -5.6054640    27.3077500    
14850000000   -3.6533310    13.3318200    0.4683962     -166.3266000  -16.4026400   -99.3786500   -5.5748510    24.3972300    
14900000000   -3.6378470    10.2760700    0.4221008     -169.5544000  -16.3715500   -102.2529000  -5.5587770    21.3993600    
14950000000   -3.6333500    7.2230250     0.3605652     -172.7301000  -16.3392500   -105.0701000  -5.5261980    18.3754800    
15000000000   -3.6086720    4.1616140     0.3133163     -176.0037000  -16.2974000   -107.9754000  -5.5047260    15.4185300    
15050000000   -3.6056800    1.1458600     0.2540837     -179.2345000  -16.2615000   -110.8265000  -5.4697190    12.3448000    
15100000000   -3.5999330    -1.9249050    0.1993797     177.5604000   -16.2291300   -113.6612000  -5.4513860    9.4186830     
15150000000   -3.5955760    -4.9457400    0.1437573     174.2718000   -16.1956400   -116.5831000  -5.4173020    6.3460130     
15200000000   -3.5887520    -8.1102050    0.0767260     171.0405000   -16.1605800   -119.4715000  -5.4023840    3.3649520     
15250000000   -3.5862810    -11.1392600   0.0274016     167.8194000   -16.1269500   -122.3304000  -5.3623730    0.3025108     
15300000000   -3.5797090    -14.1830800   -0.0271192    164.6387000   -16.0886100   -125.2065000  -5.3398220    -2.6168220    
15350000000   -3.5738730    -17.2196100   -0.0859909    161.3544000   -16.0603800   -128.0624000  -5.3171850    -5.6946660    
15400000000   -3.5708110    -20.3960500   -0.1447581    158.1826000   -16.0163100   -130.9555000  -5.2822880    -8.5985480    
15450000000   -3.5668700    -23.3709000   -0.1905720    154.8978000   -15.9927700   -133.8011000  -5.2741110    -11.6871100   
15500000000   -3.5654730    -26.5088800   -0.2569792    151.7012000   -15.9550500   -136.6975000  -5.2291760    -14.6229100   
15550000000   -3.5612090    -29.5108400   -0.3133688    148.4669000   -15.9146300   -139.6265000  -5.2209350    -17.6561400   
15600000000   -3.5589640    -32.6957100   -0.3699910    145.2130000   -15.8874700   -142.5351000  -5.1801920    -20.6717100   
15650000000   -3.5410590    -35.6459000   -0.4150913    142.0594000   -15.8391200   -145.3532000  -5.1748090    -23.6155700   
15700000000   -3.5451850    -38.8748800   -0.4852893    138.7738000   -15.8128200   -148.3168000  -5.1377840    -26.7260800   
15750000000   -3.5375050    -41.8909800   -0.5243726    135.5015000   -15.7707000   -151.2439000  -5.1226210    -29.7448600   
15800000000   -3.5520830    -44.9492300   -0.5988932    132.2579000   -15.7320500   -154.1185000  -5.0869590    -32.7807000   
15850000000   -3.5398360    -48.1599800   -0.6400267    128.9678000   -15.7033300   -157.0594000  -5.0800810    -35.7539800   
15900000000   -3.5434390    -51.1377900   -0.7089420    125.8034000   -15.6561300   -159.9496000  -5.0467720    -38.8293700   
15950000000   -3.5412390    -54.4432400   -0.7649647    122.5285000   -15.6262800   -162.9274000  -5.0228920    -41.8414100   
16000000000   -3.5498320    -57.3593600   -0.8304841    119.3233000   -15.5930600   -165.7879000  -5.0114860    -44.9306600   
16050000000   -3.5361730    -60.6685900   -0.8771771    116.0490000   -15.5503500   -168.7416000  -4.9722000    -47.9294500   
16100000000   -3.5285570    -63.6780200   -0.9318475    112.8159000   -15.5175400   -171.7018000  -4.9590060    -50.9780200   
16150000000   -3.5387930    -66.8142200   -0.9902091    109.5416000   -15.4815100   -174.5799000  -4.9399820    -54.0100700   
16200000000   -3.5387060    -69.9765900   -1.0519320    106.3113000   -15.4386700   -177.5258000  -4.9157940    -57.1453900   
16250000000   -3.5514340    -73.1671400   -1.1176140    103.0247000   -15.4073400   179.5484000   -4.8908210    -60.1065800   
16300000000   -3.5394840    -76.1920900   -1.1754280    99.8380700    -15.3618600   176.5994000   -4.8800560    -63.2445300   
16350000000   -3.5406680    -79.3715100   -1.2344730    96.6510200    -15.3337500   173.6751000   -4.8476450    -66.2563200   
16400000000   -3.5492640    -82.5303000   -1.2932770    93.3235500    -15.3027100   170.7499000   -4.8436760    -69.2996300   
16450000000   -3.5508610    -85.7174000   -1.3456480    90.1294200    -15.2550300   167.7724000   -4.8062750    -72.4279000   
16500000000   -3.5373770    -88.8582900   -1.4093650    86.8275900    -15.2183300   164.7900000   -4.7966390    -75.4704400   
16550000000   -3.5499010    -92.0104500   -1.4639160    83.5954100    -15.1760000   161.8955000   -4.7644970    -78.6033400   
16600000000   -3.5490310    -95.2171600   -1.5353510    80.3089100    -15.1480600   158.8427000   -4.7423330    -81.6534100   
16650000000   -3.5591110    -98.4021500   -1.5879530    77.0696800    -15.1026900   155.9193000   -4.7373340    -84.7497500   
16700000000   -3.5596600    -101.6817000  -1.6547940    73.7195500    -15.0696800   152.9484000   -4.7082480    -87.7790000   
16750000000   -3.5527320    -104.7558000  -1.7036590    70.5790300    -15.0273300   149.9944000   -4.7030630    -90.9473200   
16800000000   -3.5523700    -108.0523000  -1.7690810    67.2982300    -14.9911300   147.0289000   -4.6755350    -94.0072900   
16850000000   -3.5684050    -111.1232000  -1.8306470    64.0778800    -14.9509900   144.0436000   -4.6527270    -97.1511000   
16900000000   -3.5606240    -114.4245000  -1.8887510    60.8217800    -14.9104400   141.0391000   -4.6445160    -100.2599000  
16950000000   -3.5603830    -117.5138000  -1.9474560    57.5507500    -14.8852600   138.0417000   -4.6272480    -103.4347000  
17000000000   -3.5696090    -120.7745000  -1.9964140    54.2909600    -14.8392000   135.0692000   -4.6200010    -106.5864000  
17050000000   -3.5629270    -124.0638000  -2.0700350    50.9625500    -14.8058000   132.0953000   -4.6027070    -109.7650000  
17100000000   -3.5811650    -127.2113000  -2.1451660    47.7345600    -14.7649800   129.1024000   -4.5750210    -112.9213000  
17150000000   -3.5830030    -130.5129000  -2.2073150    44.4312700    -14.7417800   125.9960000   -4.5784750    -116.1857000  
17200000000   -3.5890350    -133.7200000  -2.2772510    41.1873400    -14.7070100   123.0135000   -4.5507450    -119.3345000  
17250000000   -3.5858090    -136.8786000  -2.3357080    38.0075300    -14.6655300   120.0325000   -4.5425040    -122.5271000  
17300000000   -3.5927120    -140.2173000  -2.3990570    34.6778500    -14.6382400   117.0290000   -4.5228470    -125.7324000  
17350000000   -3.5801750    -143.4802000  -2.4646800    31.3940300    -14.6016200   114.0253000   -4.5115540    -128.8844000  
17400000000   -3.5967310    -146.7224000  -2.5378920    28.1227300    -14.5653300   110.9288000   -4.4833570    -132.2304000  
17450000000   -3.5908850    -150.0218000  -2.6155160    24.8203200    -14.5406600   108.0036000   -4.4823190    -135.2814000  
17500000000   -3.6080680    -153.2575000  -2.6867150    21.5433300    -14.5071200   104.8678000   -4.4655180    -138.6967000  
17550000000   -3.5949130    -156.6127000  -2.7441110    18.3094100    -14.4781500   101.8667000   -4.4531040    -141.8423000  
17600000000   -3.5913090    -159.7764000  -2.8125960    14.9711200    -14.4382800   98.8726300    -4.4335820    -145.0261000  
17650000000   -3.5992710    -163.0714000  -2.8863710    11.7817300    -14.4034800   95.8127400    -4.4271970    -148.3353000  
17700000000   -3.5798530    -166.3786000  -2.9509070    8.4200070     -14.3734300   92.7317400    -4.4138770    -151.6749000  
17750000000   -3.5923940    -169.6560000  -3.0201360    5.1673820     -14.3340600   89.6588100    -4.3899470    -155.0170000  
17800000000   -3.5780020    -172.9666000  -3.0924970    1.8279840     -14.3108600   86.5450500    -4.3723110    -158.3969000  
17850000000   -3.5689240    -176.2609000  -3.1578160    -1.4329540    -14.2796800   83.5588100    -4.3463950    -161.5392000  
17900000000   -3.5734190    -179.4682000  -3.2411110    -4.6947680    -14.2384500   80.4687000    -4.3370390    -164.9743000  
17950000000   -3.5769440    177.2101000   -3.3130460    -7.9323900    -14.2223300   77.4727900    -4.3024490    -168.1078000  
18000000000   -3.5663820    174.0218000   -3.3730700    -11.1808400   -14.1805200   74.4208800    -4.3091600    -171.4308000  
18050000000   -3.5720710    170.5340000   -3.4661860    -14.5675700   -14.1705000   71.1854100    -4.2689900    -174.9245000  
18100000000   -3.5398080    167.2905000   -3.5249500    -17.8115100   -14.1268800   68.1253500    -4.2670290    -178.1135000  
18150000000   -3.5516010    163.9553000   -3.6080790    -21.0847700   -14.1086100   65.0478400    -4.2437920    178.4660000   
18200000000   -3.5334680    160.6727000   -3.6835730    -24.4125600   -14.0767400   61.9607100    -4.2350430    175.1816000   
18250000000   -3.5341990    157.3694000   -3.7576040    -27.7060900   -14.0441000   58.9131200    -4.2009550    171.7934000   
18300000000   -3.5005850    154.0050000   -3.8291750    -30.9702800   -14.0140300   55.7717600    -4.1793580    168.5062000   
18350000000   -3.5044240    150.7836000   -3.9178880    -34.2626900   -13.9925600   52.7164300    -4.1634500    165.1345000   
18400000000   -3.4837990    147.4179000   -3.9943590    -37.4920200   -13.9633700   49.6060600    -4.1479150    161.8451000   
18450000000   -3.4726580    144.2592000   -4.0679530    -40.8242100   -13.9453600   46.5275900    -4.1280300    158.3564000   
18500000000   -3.4645690    140.8517000   -4.1519270    -44.1503700   -13.9178100   43.4349700    -4.0969600    155.0975000   
18550000000   -3.4504240    137.4997000   -4.2243230    -47.5145100   -13.8885300   40.2425500    -4.0762360    151.6207000   
18600000000   -3.4362290    134.1112000   -4.3044260    -50.8127700   -13.8604000   37.1654200    -4.0489370    148.3286000   
18650000000   -3.4272620    130.7617000   -4.3978970    -54.0708700   -13.8355200   34.0138800    -4.0230190    144.8284000   
18700000000   -3.4225330    127.4088000   -4.5008360    -57.3922700   -13.8333100   30.8896800    -3.9910440    141.5967000   
18750000000   -3.3910970    124.2154000   -4.5697830    -60.6359700   -13.7961600   27.8100200    -3.9858660    138.2268000   
18800000000   -3.3771230    120.7373000   -4.6515850    -63.9393500   -13.7709200   24.6574400    -3.9301730    134.8585000   
18850000000   -3.3524830    117.4951000   -4.7192960    -67.2041300   -13.7417400   21.5420700    -3.9286220    131.5797000   
18900000000   -3.3286930    113.9174000   -4.8171570    -70.5932400   -13.7299900   18.3489200    -3.8822590    128.0441000   
18950000000   -3.2927420    110.7529000   -4.9075850    -73.8200100   -13.7229500   15.1955900    -3.8697920    124.7370000   
19000000000   -3.3126890    107.2874000   -5.0053290    -77.2498000   -13.7074900   12.1069400    -3.8342230    121.3297000   
19050000000   -3.2692690    104.0197000   -5.1070210    -80.4996600   -13.6825500   8.9672230     -3.8064130    118.1388000   
19100000000   -3.2814070    100.7079000   -5.2038960    -83.7404200   -13.6763500   5.8191320     -3.7962990    114.7000000   
19150000000   -3.2445420    97.1753500    -5.2930660    -87.1082300   -13.6598500   2.6081410     -3.7661380    111.3598000   
19200000000   -3.2325240    93.8446600    -5.4003890    -90.2984400   -13.6537000   -0.5122833    -3.7287270    107.9463000   
19250000000   -3.1724650    90.5088800    -5.5038400    -93.5400900   -13.6669600   -3.6503460    -3.7113140    104.7243000   
19300000000   -3.1702900    87.7787100    -5.5870190    -96.8886500   -13.6407300   -6.6786230    -3.6912320    101.2989000   
19350000000   -3.1911710    84.1642400    -5.6691000    -100.0697000  -13.6120100   -9.7861810    -3.6604250    98.0689600    
19400000000   -3.1640930    80.6898400    -5.7844010    -103.4817000  -13.6179400   -12.9913500   -3.6486810    94.6445500    
19450000000   -3.1509630    77.2589300    -5.9006070    -106.7442000  -13.5996400   -16.2028600   -3.5913080    91.2015400    
19500000000   -3.1127070    73.8834300    -6.0026220    -109.9675000  -13.6045300   -19.3434400   -3.5688740    87.9746000    
19550000000   -3.0976830    70.7247200    -6.1125760    -113.0734000  -13.6007300   -22.3718400   -3.5226510    84.8327300    
19600000000   -3.0908330    67.3640700    -6.1911620    -116.4219000  -13.5770800   -25.5583300   -3.5284480    81.6525700    
19650000000   -3.0497590    63.6845600    -6.2860020    -119.7424000  -13.5727500   -28.7358400   -3.5036820    78.0891000    
19700000000   -3.0011640    60.5925600    -6.4275210    -122.9399000  -13.5800100   -31.8612000   -3.4559980    74.7803500    
19750000000   -3.0113450    57.2309700    -6.5376340    -126.2165000  -13.5908100   -34.9403200   -3.4247830    71.5980100    
19800000000   -2.9883600    53.9741800    -6.6532340    -129.4593000  -13.5820600   -38.0326400   -3.4022460    68.4826900    
19850000000   -3.0076640    50.6270700    -6.7614790    -132.6602000  -13.5637300   -41.2235300   -3.3819590    65.1504600    
19900000000   -2.9559250    47.1670500    -6.8882010    -135.8435000  -13.5802400   -44.3690900   -3.3587340    61.8351300    
19950000000   -2.9251100    44.0475700    -6.9867490    -139.0773000  -13.5680900   -47.4462900   -3.3266680    58.6024600    
20000000000   -2.9101710    40.5755500    -7.0975480    -142.4814000  -13.5778700   -50.5943300   -3.3003070    55.3267900    
