!Mini-Circuits Laboratory
!S-Parameters
!Model: LEE2-6+
!Run / Lot / Date Code: N/A / N/A / N/A
!Fixture: TB-621+ DC 1602
!Network Analyzer: PNA-X N5242A - 423 4 ports;  Serial number: 71404
!Date: 4/12/2016 at 7:56:13 AM
!S/N: Unit# 1
!Tested with: 
!
# Hz  S  dB  R  50
!Frequency    S11 dB        S11 Deg       S21 dB        S21 Deg       S12 dB        S12 Deg       S22 dB        S22 Deg       
10000000      -29.7197500   6.0557030     21.6455800    178.1422000   -23.5789000   0.3356203     -32.9686200   9.7764480     
20000000      -32.6870500   -3.6892520    21.6551200    177.8806000   -23.5832900   -0.4060237    -39.9743800   -0.3877221    
30000000      -32.0488500   -6.9223250    21.6542100    176.9038000   -23.6119300   -0.9780297    -41.7579800   -20.1989800   
40000000      -31.6119700   -13.1720500   21.6323200    176.0127000   -23.6218900   -1.6639360    -40.7637600   -49.6435400   
50000000      -32.9342500   -24.5090400   21.5885200    175.0650000   -23.6026000   -2.0361880    -38.3897300   -93.3558400   
60000000      -32.7661200   -11.9279900   21.6049200    174.3877000   -23.6113800   -2.9461910    -41.6642900   -84.8963900   
70000000      -31.8789000   -16.9502500   21.6049600    173.3356000   -23.5938900   -3.3754050    -38.9715500   -66.1603200   
80000000      -31.5377500   -19.5590400   21.5999500    172.3742000   -23.5862300   -3.9789770    -36.3154600   -68.4424700   
90000000      -31.5472100   -22.5026900   21.5883800    171.4132000   -23.5697800   -4.4848430    -35.0412100   -69.7746800   
100000000     -31.4471300   -23.8118900   21.5878500    170.4438000   -23.5633900   -5.1487440    -33.5280400   -72.9293400   
150000000     -30.6915400   -36.2119100   21.5591900    165.7155000   -23.6020200   -7.6009980    -30.9887200   -93.1465200   
200000000     -30.3188600   -44.6760100   21.5375700    160.9776000   -23.5756500   -9.9761540    -28.8755800   -94.4230000   
250000000     -29.5957100   -56.0580500   21.5173500    156.3075000   -23.6146300   -12.4566100   -27.3076300   -106.6659000  
300000000     -29.0834800   -63.5522100   21.4771200    151.5386000   -23.5873800   -14.7042200   -26.2683500   -108.5625000  
350000000     -28.2905200   -71.9069200   21.4498400    146.8614000   -23.6006300   -17.2019800   -24.8910600   -114.5961000  
400000000     -27.9158000   -76.4503100   21.4124600    142.2122000   -23.5680500   -19.4084200   -24.3691200   -116.7108000  
450000000     -27.0580500   -81.4661900   21.3679800    137.5677000   -23.5717100   -21.8856400   -23.3655300   -122.6936000  
500000000     -26.5685900   -87.4342700   21.3224200    132.9657000   -23.5402000   -24.3523000   -22.3487300   -124.5056000  
550000000     -25.9294000   -93.1153100   21.2686800    128.3312000   -23.5535500   -26.8998000   -21.3823100   -131.2576000  
600000000     -25.5297900   -98.7591600   21.2194300    123.7268000   -23.5618000   -29.2891500   -20.7986600   -136.3944000  
650000000     -24.9138700   -103.1103000  21.1555300    119.1273000   -23.5068900   -31.7024400   -20.1882600   -137.9297000  
700000000     -24.2020200   -107.7404000  21.0782500    114.5541000   -23.4896700   -34.1306700   -19.6348400   -142.0816000  
750000000     -23.8623400   -112.3003000  21.0258400    110.0377000   -23.4762000   -36.5170200   -19.1741700   -146.1836000  
800000000     -23.3949600   -116.3176000  20.9554600    105.4781000   -23.4718500   -38.9284300   -18.7000500   -150.9102000  
850000000     -22.9481500   -121.3802000  20.8926600    101.0071000   -23.4400500   -41.2632900   -18.4095100   -154.4347000  
900000000     -22.4940400   -124.6464000  20.8177200    96.4689400    -23.4169900   -43.6862400   -18.0055200   -158.2801000  
950000000     -22.1147300   -127.5747000  20.7409800    92.0501300    -23.4006200   -46.1347500   -17.6154400   -162.2652000  
1000000000    -21.6246200   -132.4707000  20.6648700    87.6486700    -23.3579400   -48.6152800   -17.2835900   -165.4347000  
1050000000    -21.3126200   -135.7165000  20.5808900    83.2214100    -23.3730100   -51.2368500   -16.7414800   -170.7568000  
1100000000    -20.9360700   -140.6930000  20.5055800    78.8275100    -23.3351800   -53.6529500   -16.5077200   -174.1569000  
1150000000    -20.7229300   -143.1205000  20.4156500    74.3611700    -23.2833300   -56.0276300   -16.3261100   -176.8037000  
1200000000    -20.3000300   -147.2778000  20.3338400    70.0576500    -23.2788900   -58.4764100   -16.0738300   178.6311000   
1250000000    -20.0659300   -150.4674000  20.2468200    65.6891200    -23.2183500   -60.9691200   -15.8052800   175.9638000   
1300000000    -19.6621400   -154.2941000  20.1608100    61.3561500    -23.2294600   -63.3938200   -15.6027500   170.8059000   
1350000000    -19.4720300   -157.1283000  20.0698100    57.0061100    -23.1837700   -65.9186200   -15.3545500   167.5830000   
1400000000    -19.1071100   -161.2517000  19.9772800    52.7296400    -23.1226000   -68.4562400   -15.1714700   164.9223000   
1450000000    -18.8052900   -164.9991000  19.8879200    48.5297000    -23.1434200   -70.8132700   -15.0068400   159.5776000   
1500000000    -18.5952100   -168.2237000  19.7960700    44.2754100    -23.0988000   -73.4111300   -14.7794700   156.1782000   
1550000000    -18.3314100   -171.4819000  19.6928200    40.0389400    -23.0630000   -75.8327000   -14.6700200   152.6874000   
1600000000    -18.0176800   -175.1998000  19.6012400    35.8967600    -23.0210600   -78.3625600   -14.5209100   149.3345000   
1650000000    -17.7992800   -178.4596000  19.5100500    31.6699700    -23.0444600   -80.7534300   -14.3825900   144.0186000   
1700000000    -17.5749300   178.3883000   19.4097600    27.4764300    -22.9548600   -83.3854100   -14.2641500   142.1295000   
1750000000    -17.3668000   175.0677000   19.3096800    23.3524700    -22.9093700   -85.8083000   -14.1575800   138.5908000   
1800000000    -17.2190200   171.6945000   19.2127600    19.1813500    -22.9090300   -88.2537400   -14.0639300   134.0974000   
1850000000    -17.0384800   168.3739000   19.1074500    14.9979800    -22.8425400   -90.8921700   -13.9342000   131.4821000   
1900000000    -16.7584400   164.9076000   19.0122300    10.9271400    -22.8189900   -93.2911400   -13.9175600   127.4006000   
1950000000    -16.5070000   161.2853000   18.9160100    6.8550530     -22.7615500   -95.8316800   -13.8298400   124.1269000   
2000000000    -16.3443500   157.9101000   18.8185400    2.8021300     -22.7364900   -98.3167900   -13.7261200   120.2969000   
2050000000    -16.2170800   154.7278000   18.7157600    -1.2625530    -22.6895400   -100.8362000  -13.6662300   116.9680000   
2100000000    -15.9839900   150.7204000   18.6219200    -5.2204900    -22.6156400   -103.5821000  -13.5327300   114.1423000   
2150000000    -15.8377900   147.8298000   18.5142200    -9.3042670    -22.5944900   -106.0434000  -13.5108300   110.1058000   
2200000000    -15.6211600   144.0795000   18.4242100    -13.1962700   -22.5832600   -108.6401000  -13.3859900   105.9787000   
2250000000    -15.5340900   141.2742000   18.3163400    -17.3202800   -22.4889700   -111.2162000  -13.3972900   103.7523000   
2300000000    -15.3443200   137.8224000   18.2085800    -21.2839100   -22.4165500   -113.9777000  -13.2870600   101.0351000   
2350000000    -15.2147800   134.2255000   18.1220600    -25.2621100   -22.4391900   -116.4242000  -13.2216000   95.9800500    
2400000000    -15.0718500   131.3539000   18.0070500    -29.2113800   -22.3697700   -119.2199000  -13.1144000   93.3384200    
2450000000    -14.9251400   127.4713000   17.9229900    -33.0926500   -22.3527700   -121.6134000  -13.1264700   89.1201500    
2500000000    -14.7715100   124.1033000   17.8197500    -37.0538400   -22.2687400   -124.4081000  -13.0517200   86.6159600    
2550000000    -14.6370100   120.4910000   17.7322300    -40.9038700   -22.2790600   -126.9094000  -13.0022000   81.7614700    
2600000000    -14.5917000   117.3238000   17.6282600    -44.9306900   -22.1800900   -129.7236000  -12.9617000   79.7938900    
2650000000    -14.3975200   113.4841000   17.5336700    -48.7173000   -22.1813000   -132.1770000  -12.9473400   75.0304700    
2700000000    -14.2528300   110.0993000   17.4323100    -52.6557800   -22.1093300   -134.9031000  -12.9097100   72.3018500    
2750000000    -14.1428700   107.0355000   17.3312000    -56.4458500   -22.0878100   -137.5178000  -12.8643700   68.2226500    
2800000000    -14.0772000   103.3656000   17.2377400    -60.3919800   -22.0333400   -140.1680000  -12.8443300   65.0662500    
2850000000    -13.9231700   99.9557000    17.1348400    -64.1850400   -21.9732800   -142.9127000  -12.8269400   61.9250100    
2900000000    -13.8355600   96.6652500    17.0449700    -68.0846300   -21.9535400   -145.4632000  -12.8304400   57.8881000    
2950000000    -13.7707000   93.0782700    16.9451400    -71.9401900   -21.8713200   -148.3075000  -12.7729900   55.2546200    
3000000000    -13.6315500   89.1383700    16.8629700    -75.6591000   -21.8832400   -150.7957000  -12.7511000   50.4762500    
3050000000    -13.5473100   86.0257400    16.7577100    -79.5435500   -21.7942400   -153.6879000  -12.7008200   48.1583100    
3100000000    -13.4478600   82.4130500    16.6690000    -83.2899100   -21.7921600   -156.2153000  -12.7021500   43.6199300    
3150000000    -13.3915500   79.1445200    16.5685400    -87.1618900   -21.7084000   -159.0218000  -12.7150000   41.0647100    
3200000000    -13.2479800   75.5147900    16.4650000    -90.8826300   -21.6942700   -161.6622000  -12.6967500   36.8080900    
3250000000    -13.1885600   72.1658000    16.3878000    -94.6959400   -21.6445100   -164.5536000  -12.6080300   33.8017500    
3300000000    -13.0447200   68.0830600    16.2918300    -98.3280300   -21.5890400   -167.3675000  -12.5804400   30.6050300    
3350000000    -13.0240700   64.9368600    16.1979100    -102.2124000  -21.5411700   -169.9535000  -12.6204200   27.0269700    
3400000000    -12.9528600   61.7252900    16.1032400    -106.0061000  -21.5068900   -172.7393000  -12.5817200   23.4656200    
3450000000    -12.8774200   57.9491100    16.0167300    -109.6624000  -21.4672100   -175.4577000  -12.5833000   19.8608300    
3500000000    -12.7779500   54.8506800    15.9126100    -113.5358000  -21.3945700   -178.3288000  -12.5859700   17.0684800    
3550000000    -12.6946800   50.3350600    15.8405100    -117.0596000  -21.4111500   179.3327000   -12.6262000   12.0402000    
3600000000    -12.6170200   47.2258500    15.7394800    -120.8535000  -21.3176600   176.3415000   -12.6168800   9.6196830     
3650000000    -12.5111400   43.5885500    15.6498700    -124.5427000  -21.2707000   173.4921000   -12.5810400   6.5131640     
3700000000    -12.4840000   39.7622600    15.5734400    -128.3187000  -21.2127500   170.6711000   -12.5565700   3.0596330     
3750000000    -12.3737100   36.6166300    15.4622900    -131.9573000  -21.2186200   168.1574000   -12.5845600   -1.3531790    
3800000000    -12.3729100   32.6991000    15.3942500    -135.7070000  -21.1871800   165.4193000   -12.5751800   -5.1409430    
3850000000    -12.2649900   29.3380000    15.2963200    -139.3873000  -21.0818700   162.3500000   -12.5728800   -7.1688860    
3900000000    -12.1805100   25.1954700    15.2271900    -143.0013000  -21.0853900   159.9486000   -12.5983600   -12.0877200   
3950000000    -12.1454000   22.5521200    15.1055400    -146.8650000  -21.0101800   156.8293000   -12.5791500   -14.4938800   
4000000000    -12.0761600   18.1925000    15.0486900    -150.3875000  -21.0186000   154.3096000   -12.5466600   -19.0561400   
4050000000    -11.9861100   14.8172000    14.9513700    -154.0880000  -20.9274000   151.0396000   -12.5232500   -21.2487000   
4100000000    -11.8989300   10.9016500    14.8744600    -157.6472000  -20.9483300   148.8002000   -12.5597700   -26.4074200   
4150000000    -11.8706800   7.2720340     14.7967200    -161.4581000  -20.8853100   145.6879000   -12.5213000   -29.2394600   
4200000000    -11.7587600   3.8464650     14.6882300    -165.0052000  -20.8527600   142.9674000   -12.5297000   -32.7040400   
4250000000    -11.8259700   0.2674197     14.6180800    -168.8514000  -20.7959500   140.0863000   -12.5192100   -36.0018600   
4300000000    -11.6070000   -3.5948530    14.5305200    -172.2653000  -20.7710400   137.2405000   -12.5015600   -39.5463400   
4350000000    -11.6191400   -7.2093550    14.4597600    -176.0200000  -20.7448500   134.5726000   -12.5167100   -43.5869900   
4400000000    -11.5526400   -10.8108500   14.3621100    -179.5789000  -20.6957300   131.4782000   -12.4752900   -46.3901600   
4450000000    -11.5017000   -14.5140900   14.2903300    176.7666000   -20.6619100   128.9689000   -12.5225600   -50.3557600   
4500000000    -11.4441000   -18.1742400   14.2049900    173.0647000   -20.6306700   126.0614000   -12.5027400   -53.9960800   
4550000000    -11.3322000   -22.1310500   14.1253300    169.6481000   -20.6122500   123.4229000   -12.5181300   -57.9942000   
4600000000    -11.3324900   -25.3456500   14.0360100    165.8630000   -20.5458600   120.2094000   -12.4677800   -60.6633800   
4650000000    -11.2175800   -29.6253400   13.9723000    162.3284000   -20.5370300   117.4799000   -12.4592500   -64.4218100   
4700000000    -11.2124400   -32.6776800   13.8779000    158.5842000   -20.4978200   114.7144000   -12.4570400   -68.1078900   
4750000000    -11.1562100   -36.5901700   13.8003400    155.0276000   -20.4791700   111.8163000   -12.4179400   -71.6842700   
4800000000    -11.0554900   -40.5476800   13.7314500    151.5089000   -20.4424800   109.1547000   -12.4469400   -75.5449800   
4850000000    -10.9851300   -43.8788100   13.6350900    147.8722000   -20.4076400   106.1858000   -12.4203300   -78.8232800   
4900000000    -10.9906700   -47.9685300   13.5868300    144.3084000   -20.3730900   103.5526000   -12.4508800   -82.6557600   
4950000000    -10.9070800   -51.5018500   13.4943400    140.6641000   -20.3257500   100.5636000   -12.4276400   -85.8400900   
5000000000    -10.8480000   -55.5637100   13.4288500    137.0841000   -20.3083900   97.8189800    -12.4164100   -89.6185600   
5050000000    -10.7726700   -58.6869500   13.3225500    133.5265000   -20.2594500   94.6895400    -12.3923800   -92.4422700   
5100000000    -10.7013900   -62.6761200   13.2527700    129.9909000   -20.2722600   92.2421600    -12.3944300   -97.0653900   
5150000000    -10.6505500   -66.0244400   13.1743700    126.3467000   -20.2079400   89.0390000    -12.3816300   -99.7111700   
5200000000    -10.6455900   -70.0096100   13.1088900    122.7881000   -20.1917900   86.5718400    -12.3837700   -104.0158000  
5250000000    -10.5734100   -73.8107200   13.0303400    119.2025000   -20.1276200   83.4029500    -12.3917600   -106.6243000  
5300000000    -10.4933900   -77.1545900   12.9340500    115.6316000   -20.1124400   80.7317700    -12.3961300   -110.6125000  
5350000000    -10.4674900   -80.8952600   12.8773900    112.0393000   -20.0877400   77.8279300    -12.3536000   -113.8158000  
5400000000    -10.3971500   -84.7951000   12.7950700    108.5449000   -20.0563600   74.8827100    -12.3235700   -117.3096000  
5450000000    -10.3671600   -88.2353700   12.7247200    104.9488000   -20.0198800   72.0570100    -12.3401200   -120.8015000  
5500000000    -10.3106000   -92.3294800   12.6530600    101.4044000   -19.9940100   69.3307600    -12.3389400   -124.5525000  
5550000000    -10.2049600   -95.6511500   12.5603400    97.8610800    -19.9671100   66.5873900    -12.3206600   -128.2035000  
5600000000    -10.1855100   -99.0948000   12.4909000    94.2830200    -19.9295700   63.3712500    -12.2898500   -130.8553000  
5650000000    -10.1213200   -102.9147000  12.4134600    90.8483800    -19.9017400   60.4873300    -12.2955500   -134.2236000  
5700000000    -10.0698600   -106.6989000  12.3513000    87.1980500    -19.8826200   57.7299700    -12.2542600   -137.9433000  
5750000000    -10.0363800   -110.2666000  12.2726800    83.6013700    -19.8597500   54.7556200    -12.2143200   -141.2066000  
5800000000    -9.9696450    -113.8236000  12.2117900    80.1592800    -19.8348700   52.0138000    -12.2067300   -144.7298000  
5850000000    -9.8985110    -117.2440000  12.1192700    76.5246300    -19.7974100   48.9932100    -12.2005400   -147.8908000  
5900000000    -9.8656220    -121.1380000  12.0605800    73.0787900    -19.7786500   46.4552200    -12.1901600   -151.8827000  
5950000000    -9.7712740    -124.9085000  11.9911800    69.5389800    -19.7373100   43.0973900    -12.1634800   -154.4508000  
6000000000    -9.7232920    -128.5084000  11.9142900    66.0347600    -19.7176500   40.3691700    -12.1286700   -158.1057000  
6050000000    -9.7300050    -132.1304000  11.8395600    62.4302600    -19.7039700   37.3834200    -12.1007100   -161.3481000  
6100000000    -9.6079870    -135.8469000  11.7687800    58.9678100    -19.6964000   34.8839500    -12.0522700   -165.4129000  
6150000000    -9.5796310    -139.2405000  11.6932500    55.4214400    -19.6645100   31.7614300    -12.0298300   -168.2232000  
6200000000    -9.5069930    -142.9732000  11.6233500    51.9345000    -19.6342500   28.9414000    -12.0148400   -171.6204000  
6250000000    -9.4717750    -146.4348000  11.5536900    48.3555500    -19.6110600   25.9502300    -11.9831400   -174.6925000  
6300000000    -9.4207330    -149.9054000  11.4847000    44.7792500    -19.5908800   23.0602500    -11.9336900   -178.1077000  
6350000000    -9.3464570    -153.7668000  11.4209900    41.2844700    -19.5768300   20.1020700    -11.8705800   178.6714000   
6400000000    -9.3063630    -157.3822000  11.3435300    37.8462400    -19.5702500   17.2287300    -11.8458700   175.3132000   
6450000000    -9.2155090    -161.1219000  11.2774100    34.3431200    -19.5477100   14.5258500    -11.8104400   171.7015000   
6500000000    -9.1973230    -164.4865000  11.2083300    30.8002100    -19.5216300   11.6622600    -11.7886600   168.4499000   
6550000000    -9.1401990    -168.2056000  11.1362200    27.3155400    -19.5018400   8.8079720     -11.7568100   165.1131000   
6600000000    -9.1017250    -171.5941000  11.0625900    23.7199500    -19.4660300   5.6978870     -11.7471100   162.2715000   
6650000000    -9.0001100    -175.2281000  10.9944700    20.3503400    -19.4674500   2.8808470     -11.6835800   158.8260000   
6700000000    -8.9482720    -178.6934000  10.9222500    16.8611800    -19.4420000   -0.0109593    -11.6625100   155.7255000   
6750000000    -8.9158340    177.7274000   10.8472700    13.3278900    -19.4426300   -2.7580770    -11.6066400   152.1737000   
6800000000    -8.9045880    174.1596000   10.7933800    9.7773570     -19.4166800   -5.7344280    -11.5822200   149.1167000   
6850000000    -8.8155390    170.7527000   10.7128100    6.3199650     -19.3954000   -8.4448110    -11.5628200   145.5722000   
6900000000    -8.8010560    166.9453000   10.6479700    2.8142470     -19.3707400   -11.3295200   -11.5143300   142.3303000   
6950000000    -8.7058230    163.5726000   10.5723400    -0.6837500    -19.3563400   -14.3936100   -11.4759700   139.4472000   
7000000000    -8.6721740    159.8461000   10.5258800    -4.1632230    -19.3400300   -17.1457600   -11.4260900   136.0031000   
7050000000    -8.6104050    156.3799000   10.4387300    -7.6296930    -19.3338900   -20.1093900   -11.3881200   132.9613000   
7100000000    -8.5686280    152.8778000   10.3808600    -11.1415300   -19.3187500   -22.7216600   -11.3422600   129.3255000   
7150000000    -8.4867720    149.3804000   10.2977300    -14.6049700   -19.3041100   -25.7975000   -11.2964800   126.4216000   
7200000000    -8.4378270    145.9032000   10.2368900    -18.1002700   -19.2776300   -28.5187600   -11.2666800   123.1125000   
7250000000    -8.4110050    142.2802000   10.1757200    -21.5672000   -19.2670600   -31.5157200   -11.2212900   120.0946000   
7300000000    -8.3419430    138.6316000   10.1063800    -24.9813300   -19.2549800   -34.4200000   -11.1763500   116.9495000   
7350000000    -8.3028010    135.2712000   10.0366200    -28.5784500   -19.2519000   -37.3374600   -11.1154700   113.8546000   
7400000000    -8.2487710    131.7903000   9.9640020     -31.9955600   -19.2340200   -40.1405100   -11.0774700   110.6266000   
7450000000    -8.1948110    128.3711000   9.8921100     -35.5010000   -19.2034300   -42.8975600   -11.0563300   107.2647000   
7500000000    -8.1431260    124.7278000   9.8366580     -38.9764300   -19.1855000   -45.8862400   -11.0155900   104.3636000   
7550000000    -8.0942990    121.0990000   9.7765270     -42.3518600   -19.1537700   -48.7297800   -10.9819000   101.1532000   
7600000000    -8.0414570    117.7315000   9.6957780     -45.8172000   -19.1413200   -51.6633300   -10.9389100   98.1701300    
7650000000    -7.9936100    114.2567000   9.6357370     -49.3614200   -19.1478800   -54.5482300   -10.8698200   95.0564300    
7700000000    -7.9274480    110.8560000   9.5678650     -52.8532900   -19.1337600   -57.4550900   -10.8210300   92.0526700    
7750000000    -7.8821770    107.3233000   9.5001680     -56.2038000   -19.1186000   -60.1503500   -10.7812900   88.6475400    
7800000000    -7.8431370    103.7240000   9.4375700     -59.7319900   -19.0971200   -63.1145900   -10.7476900   85.7128600    
7850000000    -7.7764190    100.2980000   9.3728240     -63.1894600   -19.0852500   -65.8692200   -10.6910400   82.4496000    
7900000000    -7.7305750    96.9025400    9.3032410     -66.6653100   -19.0778900   -68.9914600   -10.6433400   79.7213700    
7950000000    -7.6712970    93.3322500    9.2370100     -70.1192600   -19.0713100   -71.6915100   -10.5812300   76.5544400    
8000000000    -7.6322830    89.9088400    9.1679490     -73.5795600   -19.0539600   -74.4450100   -10.5262800   73.2157200    
8050000000    -7.5789340    86.4171800    9.1042340     -77.0250300   -19.0425500   -77.2350800   -10.4844400   70.0535000    
8100000000    -7.5388120    82.8976700    9.0457470     -80.4938100   -19.0123400   -80.0289300   -10.4439900   66.8473300    
8150000000    -7.4822140    79.4512600    8.9743030     -83.9239100   -18.9961500   -82.9430000   -10.4160500   63.8965200    
8200000000    -7.4386010    76.0418900    8.9112150     -87.4077500   -18.9830600   -85.8343200   -10.3702200   60.7780300    
8250000000    -7.3954090    72.5229100    8.8416720     -90.8198500   -18.9785000   -88.7677300   -10.3128500   57.8145600    
8300000000    -7.3374910    69.1045800    8.7779210     -94.2412600   -18.9573600   -91.5444200   -10.2769700   54.6447500    
8350000000    -7.2988030    65.5989900    8.7125040     -97.7274000   -18.9445100   -94.4466200   -10.2153600   51.6156300    
8400000000    -7.2452450    62.0655900    8.6459840     -101.1968000  -18.9153700   -97.2117400   -10.1991700   48.3780000    
8450000000    -7.1975720    58.7372500    8.5851960     -104.5960000  -18.9050800   -100.0684000  -10.1382400   45.3209100    
8500000000    -7.1454300    55.1969000    8.5203420     -108.0314000  -18.8982700   -103.0964000  -10.1096300   42.5546800    
8550000000    -7.0862150    51.8392400    8.4471160     -111.4646000  -18.8711000   -105.8911000  -10.0742500   39.3325000    
8600000000    -7.0587660    48.3031000    8.3851200     -115.0052000  -18.8740700   -108.8659000  -10.0182800   36.4383700    
8650000000    -7.0100180    44.9033800    8.3243580     -118.3984000  -18.8524000   -111.6628000  -9.9703670    33.2796600    
8700000000    -6.9673710    41.4193900    8.2575430     -121.8766000  -18.8365100   -114.5549000  -9.9365470    30.2737400    
8750000000    -6.9000260    38.0588400    8.1903770     -125.2713000  -18.8161000   -117.3563000  -9.8968190    27.1560200    
8800000000    -6.8567040    34.5740900    8.1267810     -128.7038000  -18.7975500   -120.2057000  -9.8522350    24.0336100    
8850000000    -6.8142220    31.1739000    8.0633660     -132.1162000  -18.7917100   -123.1666000  -9.8062850    21.1809900    
8900000000    -6.7814600    27.7248000    7.9956610     -135.6060000  -18.7793900   -125.9985000  -9.7684880    18.0889000    
8950000000    -6.7331220    24.2742700    7.9229340     -139.0476000  -18.7754300   -128.9740000  -9.7156130    15.1601800    
9000000000    -6.6739620    20.8590700    7.8598520     -142.4672000  -18.7511200   -131.7180000  -9.6844560    11.9307200    
9050000000    -6.6252020    17.5336300    7.7829230     -145.8689000  -18.7371400   -134.6126000  -9.6411200    8.9523480     
9100000000    -6.5870560    14.1137100    7.7201120     -149.3195000  -18.7274400   -137.5334000  -9.6038850    6.0032370     
9150000000    -6.5414060    10.6793300    7.6567650     -152.7628000  -18.7158500   -140.4659000  -9.5555500    3.0296040     
9200000000    -6.4921210    7.3317390     7.6008860     -156.1873000  -18.7125900   -143.3382000  -9.5050330    0.0581677     
9250000000    -6.4685190    3.9435940     7.5251220     -159.6277000  -18.6985000   -146.1519000  -9.4738040    -2.9609170    
9300000000    -6.4125620    0.4766655     7.4616340     -163.1134000  -18.6888400   -149.0766000  -9.4176770    -6.0430500    
9350000000    -6.3757390    -3.0680770    7.3935430     -166.4122000  -18.6689100   -151.8806000  -9.3884510    -9.1893420    
9400000000    -6.3158290    -6.2712320    7.3231980     -169.8721000  -18.6681300   -154.7329000  -9.3410810    -12.1293000   
9450000000    -6.2809440    -9.7997880    7.2602910     -173.2789000  -18.6605800   -157.6298000  -9.2969120    -15.1319900   
9500000000    -6.2248160    -13.1012600   7.1955350     -176.7194000  -18.6496700   -160.5576000  -9.2456380    -18.1289700   
9550000000    -6.1947940    -16.4725500   7.1277350     179.8667000   -18.6405100   -163.3419000  -9.2080700    -21.1955400   
9600000000    -6.1340960    -19.9821700   7.0577610     176.4438000   -18.6193900   -166.1648000  -9.1605740    -24.4227300   
9650000000    -6.0971670    -23.3118600   6.9908140     173.0143000   -18.6260700   -169.0175000  -9.1099850    -27.2756000   
9700000000    -6.0648270    -26.7313300   6.9167330     169.6251000   -18.6089200   -171.9938000  -9.0789380    -30.2791100   
9750000000    -6.0122930    -29.9590300   6.8448110     166.1859000   -18.5933400   -174.7339000  -9.0264640    -33.3703000   
9800000000    -5.9767070    -33.3144600   6.7878860     162.7860000   -18.5913500   -177.6152000  -8.9885480    -36.3377600   
9850000000    -5.9305010    -36.7609400   6.7185140     159.3569000   -18.5854400   179.4806000   -8.9439440    -39.4355900   
9900000000    -5.8751380    -40.1093800   6.6489710     156.0028000   -18.5657200   176.7394000   -8.9072920    -42.5218000   
9950000000    -5.8268900    -43.5072900   6.5822220     152.5974000   -18.5573200   173.8222000   -8.8613030    -45.4679000   
10000000000   -5.7913040    -46.8130300   6.5083270     149.1264000   -18.5500600   170.9852000   -8.8209220    -48.5814300   
10050000000   -5.7455630    -50.0680800   6.4457970     145.7492000   -18.5416300   168.1068000   -8.7817210    -51.5070500   
10100000000   -5.7081700    -53.4647200   6.3679460     142.3704000   -18.5358700   165.2636000   -8.7385030    -54.5296100   
10150000000   -5.6630920    -56.7963500   6.3025500     138.9883000   -18.5206100   162.4724000   -8.6988460    -57.6638300   
10200000000   -5.6235220    -60.0871700   6.2327870     135.5861000   -18.5264500   159.5037000   -8.6406700    -60.5583900   
10250000000   -5.5880800    -63.3576000   6.1606460     132.1996000   -18.5147300   156.7549000   -8.6088200    -63.6148500   
10300000000   -5.5337890    -66.6759900   6.0957510     128.7709000   -18.5104600   153.8205000   -8.5548650    -66.5911800   
10350000000   -5.4982950    -70.0674100   6.0184430     125.3795000   -18.4981200   150.9946000   -8.5065550    -69.6853000   
10400000000   -5.4447010    -73.3343300   5.9530090     121.9702000   -18.4996200   148.1254000   -8.4681780    -72.6336900   
10450000000   -5.4086390    -76.6661100   5.8715590     118.5888000   -18.4866700   145.2333000   -8.4088540    -75.6116700   
10500000000   -5.3702310    -79.9602300   5.8049720     115.2043000   -18.4771700   142.4286000   -8.3776710    -78.6443200   
10550000000   -5.3328150    -83.1291000   5.7252850     111.8153000   -18.4821800   139.6059000   -8.3215400    -81.5526000   
10600000000   -5.2844200    -86.4553600   5.6678920     108.4288000   -18.4634000   136.7477000   -8.2836050    -84.6199000   
10650000000   -5.2404800    -89.5749700   5.5878830     105.0717000   -18.4759300   133.8995000   -8.2282350    -87.5569400   
10700000000   -5.2095990    -92.9717600   5.5109500     101.7204000   -18.4630100   131.1520000   -8.1958320    -90.5739700   
10750000000   -5.1677280    -96.0606700   5.4460810     98.2843900    -18.4695600   128.2147000   -8.1458260    -93.5077400   
10800000000   -5.1274400    -99.3829700   5.3722500     94.9176200    -18.4526400   125.4451000   -8.1028320    -96.4770400   
10850000000   -5.0831310    -102.5779000  5.2902090     91.5532500    -18.4478700   122.6035000   -8.0665980    -99.4982900   
10900000000   -5.0544500    -105.8255000  5.2152540     88.1993700    -18.4371600   119.7531000   -8.0110860    -102.4921000  
10950000000   -5.0224210    -109.0708000  5.1560040     84.8322800    -18.4456500   116.9197000   -7.9776510    -105.4657000  
11000000000   -4.9756950    -112.2364000  5.0680660     81.4593400    -18.4354500   114.0733000   -7.9214240    -108.4300000  
11050000000   -4.9419370    -115.4065000  4.9972930     78.1213800    -18.4241700   111.3295000   -7.8901190    -111.4138000  
11100000000   -4.9104420    -118.5828000  4.9174450     74.7813000    -18.4216500   108.4486000   -7.8297410    -114.3605000  
11150000000   -4.8702970    -121.8826000  4.8467550     71.4577600    -18.4076200   105.6967000   -7.8010010    -117.3650000  
11200000000   -4.8408160    -124.9170000  4.7769340     68.1034000    -18.4201700   102.8215000   -7.7416590    -120.2825000  
11250000000   -4.8077550    -128.1503000  4.6927250     64.8472200    -18.4022100   100.1588000   -7.7187830    -123.3052000  
11300000000   -4.7687320    -131.2225000  4.6249080     61.4193200    -18.4103700   97.2297700    -7.6598730    -126.2056000  
11350000000   -4.7431260    -134.4041000  4.5506470     58.2283700    -18.3822200   94.5775100    -7.6122410    -129.1609000  
11400000000   -4.6997030    -137.5415000  4.4727310     54.8216700    -18.3890000   91.6842900    -7.5777810    -132.1549000  
11450000000   -4.6692360    -140.6907000  4.3978100     51.5831000    -18.3717200   88.9593000    -7.5265490    -135.0627000  
11500000000   -4.6332680    -143.8379000  4.3298140     48.2097100    -18.3629500   86.1482800    -7.4944270    -138.1649000  
11550000000   -4.6084820    -146.9992000  4.2508280     44.9060500    -18.3583400   83.3630900    -7.4391370    -141.0326000  
11600000000   -4.5719710    -150.0795000  4.1860980     41.6336300    -18.3424100   80.6437800    -7.4141280    -143.9769000  
11650000000   -4.5456250    -153.1424000  4.1026640     38.2975300    -18.3493700   77.7659600    -7.3622150    -146.9143000  
11700000000   -4.5126610    -156.2900000  4.0334600     35.0548100    -18.3258100   75.0947000    -7.3306440    -149.8997000  
11750000000   -4.4753570    -159.4066000  3.9578960     31.6988600    -18.3162700   72.2604300    -7.2712490    -152.7663000  
11800000000   -4.4334760    -162.4871000  3.8981490     28.4227700    -18.2983200   69.4708200    -7.2432340    -155.8022000  
11850000000   -4.4271440    -165.4890000  3.8166790     25.1250800    -18.2939900   66.6844900    -7.1966060    -158.6710000  
11900000000   -4.3857890    -168.6404000  3.7398410     21.8491900    -18.2803600   63.9423400    -7.1551500    -161.5880000  
11950000000   -4.3726360    -171.7443000  3.6719270     18.5891800    -18.2717100   61.1674800    -7.1296020    -164.5927000  
12000000000   -4.3427870    -174.8886000  3.5891260     15.2624500    -18.2588800   58.3762800    -7.0803170    -167.4358000  
12050000000   -4.3197850    -177.8134000  3.5321970     11.9596700    -18.2412000   55.6434900    -7.0452450    -170.4001000  
12100000000   -4.2933170    179.0606000   3.4559480     8.6815410     -18.2368400   52.8034700    -6.9980570    -173.2259000  
12150000000   -4.2635190    176.0197000   3.3908350     5.4323530     -18.2124000   50.0730500    -6.9754520    -176.2250000  
12200000000   -4.2366100    172.9784000   3.3312500     2.1335290     -18.2003100   47.2492700    -6.9302420    -179.1306000  
12250000000   -4.2223510    169.8066000   3.2505850     -1.1685180    -18.1857300   44.5598400    -6.8966590    177.8661000   
12300000000   -4.1971880    166.8138000   3.1810050     -4.4507310    -18.1768700   41.7106300    -6.8550790    175.0185000   
12350000000   -4.1603780    163.6420000   3.1034100     -7.7553850    -18.1498100   38.9324300    -6.8223590    172.0579000   
12400000000   -4.1425550    160.7919000   3.0409980     -10.9101000   -18.1364900   36.2030600    -6.7830710    169.2467000   
12450000000   -4.1230910    157.6365000   2.9692280     -14.2072400   -18.1290100   33.3659100    -6.7433620    166.3216000   
12500000000   -4.1080400    154.7174000   2.8940260     -17.4114900   -18.0998600   30.6649100    -6.7193510    163.3836000   
12550000000   -4.0806680    151.5723000   2.8293040     -20.7890500   -18.0917800   27.7816400    -6.6637470    160.5695000   
12600000000   -4.0607780    148.5475000   2.7545680     -23.9946500   -18.0667000   25.1002400    -6.6442760    157.5983000   
12650000000   -4.0500670    145.5468000   2.6847340     -27.3054400   -18.0577200   22.3049400    -6.6026230    154.7570000   
12700000000   -4.0270860    142.5926000   2.6126950     -30.4662700   -18.0325700   19.5160200    -6.5736260    151.7196000   
12750000000   -4.0077400    139.4672000   2.5520480     -33.7844700   -18.0132800   16.7140600    -6.5374320    148.8834000   
12800000000   -3.9900560    136.5589000   2.4760810     -36.9424400   -17.9965200   13.9706500    -6.4964000    145.9946000   
12850000000   -3.9723330    133.4733000   2.4121450     -40.2526000   -17.9662500   11.1442800    -6.4784080    143.0057000   
12900000000   -3.9585760    130.4483000   2.3388840     -43.4839500   -17.9566100   8.3688310     -6.4276530    140.1814000   
12950000000   -3.9332180    127.5033000   2.2727820     -46.6873000   -17.9322600   5.6420820     -6.4033740    137.2681000   
13000000000   -3.9214560    124.5014000   2.2062400     -49.9312900   -17.9315200   2.8343220     -6.3573380    134.4283000   
13050000000   -3.9055220    121.4990000   2.1386800     -53.1345400   -17.8867800   0.1389754     -6.3394820    131.4886000   
13100000000   -3.8891140    118.5601000   2.0753210     -56.3984100   -17.8789100   -2.6904210    -6.2914780    128.5963000   
13150000000   -3.8702870    115.5067000   2.0127950     -59.5924900   -17.8457300   -5.4185970    -6.2670350    125.7492000   
13200000000   -3.8527010    112.5707000   1.9449570     -62.8331500   -17.8302600   -8.2054180    -6.2287800    122.8180000   
13250000000   -3.8405880    109.5038000   1.8814580     -66.0899400   -17.8046200   -11.0124200   -6.1923190    119.9856000   
13300000000   -3.8199870    106.4714000   1.8200640     -69.2815400   -17.7721500   -13.7585300   -6.1733970    116.9966000   
13350000000   -3.8139410    103.5079000   1.7435660     -72.4597400   -17.7519900   -16.5375300   -6.1271410    114.0993000   
13400000000   -3.7997950    100.4458000   1.6882940     -75.7662400   -17.7249500   -19.3271300   -6.1148840    111.1418000   
13450000000   -3.7806060    97.4956100    1.6244100     -78.9599500   -17.6950400   -22.0863000   -6.0603320    108.2000000   
13500000000   -3.7648310    94.5107000    1.5583370     -82.1440300   -17.6743900   -24.8601000   -6.0408680    105.3728000   
13550000000   -3.7662560    91.4880300    1.4903980     -85.4349700   -17.6571000   -27.6214900   -6.0030850    102.3830000   
13600000000   -3.7390300    88.3913000    1.4230280     -88.6242100   -17.6140700   -30.4379500   -5.9774710    99.4610400    
13650000000   -3.7373250    85.5451300    1.3673530     -91.8632000   -17.6011000   -33.1616500   -5.9435620    96.5417000    
13700000000   -3.7218620    82.4774900    1.3023580     -94.9771000   -17.5593100   -35.8728100   -5.9139570    93.6455400    
13750000000   -3.7104790    79.4944400    1.2396880     -98.2771200   -17.5358200   -38.7470700   -5.8885510    90.6710900    
13800000000   -3.7045300    76.4342100    1.1738250     -101.4965000  -17.5038700   -41.5181600   -5.8542050    87.7017800    
13850000000   -3.6864630    73.4335100    1.1193060     -104.7082000  -17.4515200   -44.3607100   -5.8360210    84.6999100    
13900000000   -3.6786400    70.3791800    1.0590070     -107.9574000  -17.4343300   -47.1706100   -5.7924180    81.7294900    
13950000000   -3.6606000    67.3557100    0.9959456     -111.1512000  -17.3881000   -49.9548300   -5.7693290    78.8909400    
14000000000   -3.6536620    64.4454000    0.9333859     -114.4206000  -17.3650900   -52.7621000   -5.7333960    75.8738400    
14050000000   -3.6288330    61.3105000    0.8784909     -117.5742000  -17.3261400   -55.5531700   -5.7102940    72.9584800    
14100000000   -3.6166150    58.3566300    0.8181627     -120.8418000  -17.3049600   -58.4181300   -5.6747570    70.0235700    
14150000000   -3.6163450    55.3334200    0.7584443     -124.0390000  -17.2567900   -61.2743000   -5.6466000    66.9848700    
14200000000   -3.6105210    52.3365000    0.6961207     -127.2601000  -17.2268400   -64.0446600   -5.6161780    64.1182500    
14250000000   -3.5952130    49.2392400    0.6398970     -130.4893000  -17.1864700   -66.9035400   -5.5868140    61.0997400    
14300000000   -3.5959160    46.2880700    0.5775406     -133.7130000  -17.1623300   -69.8056500   -5.5518580    58.1482800    
14350000000   -3.5809650    43.2442600    0.5288082     -136.9655000  -17.1187700   -72.6328200   -5.5238460    55.1460200    
14400000000   -3.5622780    40.2404100    0.4678290     -140.1128000  -17.0794800   -75.4720700   -5.4967050    52.1283800    
14450000000   -3.5584770    37.2056500    0.4054586     -143.4089000  -17.0592500   -78.2742900   -5.4624170    49.3062600    
14500000000   -3.5556080    34.1510700    0.3466469     -146.6000000  -17.0202500   -81.1579700   -5.4338910    46.2541100    
14550000000   -3.5427960    31.1725100    0.2841411     -149.8000000  -16.9839600   -84.0478500   -5.4115660    43.2484800    
14600000000   -3.5327540    28.1235900    0.2280389     -153.0117000  -16.9611400   -86.8329800   -5.3813930    40.2736000    
14650000000   -3.5319070    25.1047200    0.1781072     -156.2215000  -16.9256300   -89.7564200   -5.3622980    37.2408100    
14700000000   -3.5225990    22.0855400    0.1263570     -159.4752000  -16.8930100   -92.5642100   -5.3348840    34.2178500    
14750000000   -3.5078990    18.9906500    0.0620118     -162.7265000  -16.8583500   -95.3839200   -5.3049430    31.2356400    
14800000000   -3.5075170    15.9702600    0.0045409     -165.9296000  -16.8333000   -98.2276600   -5.2797180    28.1996500    
14850000000   -3.5041710    12.9424100    -0.0563963    -169.1339000  -16.7946000   -101.0510000  -5.2525340    25.2358000    
14900000000   -3.4911040    9.9130370     -0.1063100    -172.3750000  -16.7632000   -103.9145000  -5.2339240    22.2108700    
14950000000   -3.4903280    6.8293230     -0.1680065    -175.5400000  -16.7276500   -106.7073000  -5.2053250    19.1531000    
15000000000   -3.4632000    3.8003080     -0.2164772    -178.8021000  -16.6897500   -109.6115000  -5.1820320    16.1566800    
15050000000   -3.4679560    0.7815381     -0.2750006    177.9841000   -16.6535900   -112.4311000  -5.1472440    13.0595600    
15100000000   -3.4591900    -2.3213350    -0.3286453    174.7706000   -16.6203500   -115.2482000  -5.1289230    10.0867100    
15150000000   -3.4549440    -5.3729360    -0.3924702    171.5228000   -16.5894600   -118.1158000  -5.0950680    6.9946800     
15200000000   -3.4486300    -8.5298880    -0.4500598    168.2867000   -16.5484000   -120.9777000  -5.0805990    3.9392180     
15250000000   -3.4497750    -11.5478100   -0.5065757    165.0600000   -16.5133200   -123.7884000  -5.0447940    0.8792563     
15300000000   -3.4363910    -14.5747400   -0.5672790    161.8827000   -16.4729500   -126.6054000  -5.0224300    -2.1032440    
15350000000   -3.4307090    -17.6351500   -0.6210639    158.6083000   -16.4409300   -129.4309000  -4.9984970    -5.2176920    
15400000000   -3.4247190    -20.8036300   -0.6760417    155.4087000   -16.3904000   -132.3055000  -4.9707300    -8.2071500    
15450000000   -3.4262280    -23.8748000   -0.7228411    152.1062000   -16.3598400   -135.0980000  -4.9555670    -11.3104700   
15500000000   -3.4181800    -27.0202600   -0.7942983    148.9315000   -16.3176100   -137.9800000  -4.9160330    -14.3151700   
15550000000   -3.4166120    -30.0061000   -0.8517458    145.7079000   -16.2711200   -140.8857000  -4.9075520    -17.4392100   
15600000000   -3.4084500    -33.2028500   -0.9117892    142.4466000   -16.2408100   -143.7648000  -4.8633620    -20.4776600   
15650000000   -3.3917170    -36.1928600   -0.9551815    139.2912000   -16.1782200   -146.5853000  -4.8611010    -23.5050600   
15700000000   -3.4060430    -39.3688200   -1.0275720    135.9937000   -16.1517400   -149.5222000  -4.8208490    -26.6265200   
15750000000   -3.3854210    -42.4349600   -1.0758010    132.7778000   -16.0934800   -152.4798000  -4.8139520    -29.7606400   
15800000000   -3.4017420    -45.5015800   -1.1327570    129.5532000   -16.0539600   -155.3578000  -4.7760120    -32.8539000   
15850000000   -3.3965730    -48.7158100   -1.1887240    126.2547000   -16.0221000   -158.2918000  -4.7677420    -35.8967600   
15900000000   -3.3989010    -51.7032200   -1.2539790    123.0634000   -15.9741900   -161.1986000  -4.7341180    -39.0139100   
15950000000   -3.3896440    -55.0121700   -1.3033890    119.7787000   -15.9416700   -164.1722000  -4.7169180    -42.1202200   
16000000000   -3.3955310    -57.9597800   -1.3697540    116.5632000   -15.9049200   -167.0192000  -4.7003900    -45.2683000   
16050000000   -3.3878900    -61.2855200   -1.4195180    113.2939000   -15.8614900   -169.9561000  -4.6643780    -48.3143500   
16100000000   -3.3756240    -64.3175400   -1.4722710    110.0232000   -15.8242500   -172.9054000  -4.6520530    -51.4481200   
16150000000   -3.3831580    -67.4898500   -1.5320870    106.7914000   -15.7824400   -175.7717000  -4.6310520    -54.5506200   
16200000000   -3.3793750    -70.5788700   -1.5912110    103.5159000   -15.7373800   -178.7081000  -4.6112860    -57.7239800   
16250000000   -3.3873520    -73.7483400   -1.6631310    100.2953000   -15.7023100   178.3948000   -4.5891120    -60.7940800   
16300000000   -3.3747690    -76.8529500   -1.7155830    97.0876200    -15.6508700   175.4373000   -4.5752290    -64.0158800   
16350000000   -3.3776180    -80.0640500   -1.7805000    93.8341200    -15.6177500   172.5533000   -4.5426180    -67.0919400   
16400000000   -3.3807460    -83.2570600   -1.8384360    90.5212200    -15.5827600   169.6400000   -4.5306320    -70.2145300   
16450000000   -3.3761440    -86.4428000   -1.8894830    87.2989000    -15.5296600   166.6556000   -4.4990040    -73.4015400   
16500000000   -3.3685190    -89.5752000   -1.9600940    84.0252100    -15.4850000   163.6850000   -4.4877700    -76.5195200   
16550000000   -3.3777300    -92.7633000   -2.0114020    80.7591800    -15.4388300   160.7963000   -4.4566250    -79.7196400   
16600000000   -3.3725110    -95.9822500   -2.0789400    77.4794100    -15.4050000   157.7503000   -4.4361590    -82.8609400   
16650000000   -3.3724230    -99.1942700   -2.1379130    74.2140000    -15.3494500   154.7945000   -4.4297600    -86.0819100   
16700000000   -3.3742790    -102.4668000  -2.2085530    70.9076800    -15.3150700   151.8216000   -4.3969800    -89.1856500   
16750000000   -3.3721600    -105.5734000  -2.2573710    67.6974100    -15.2659800   148.8596000   -4.3891550    -92.4215500   
16800000000   -3.3621840    -108.8685000  -2.3265370    64.4050700    -15.2291300   145.8962000   -4.3593740    -95.5431400   
16850000000   -3.3771470    -111.9934000  -2.3808150    61.1737600    -15.1828500   142.8953000   -4.3374410    -98.7490600   
16900000000   -3.3689210    -115.3186000  -2.4392040    57.9031000    -15.1375300   139.8968000   -4.3260650    -101.9413000  
16950000000   -3.3629840    -118.3878000  -2.5132760    54.6503100    -15.1105200   136.8893000   -4.3061630    -105.1721000  
17000000000   -3.3691800    -121.6869000  -2.5626050    51.3704400    -15.0571100   133.8870000   -4.2971510    -108.4195000  
17050000000   -3.3624820    -124.9409000  -2.6462600    48.0649600    -15.0198100   130.9086000   -4.2755960    -111.6211000  
17100000000   -3.3766240    -128.1722000  -2.7154290    44.8030700    -14.9773200   127.9101000   -4.2489280    -114.8455000  
17150000000   -3.3758940    -131.5047000  -2.7791160    41.4476300    -14.9475100   124.7910000   -4.2458750    -118.1572000  
17200000000   -3.3844430    -134.7189000  -2.8516910    38.2541200    -14.9107400   121.7899000   -4.2199220    -121.3417000  
17250000000   -3.3792480    -137.9164000  -2.9164130    34.9795000    -14.8672700   118.8015000   -4.2099750    -124.5995000  
17300000000   -3.3770700    -141.2689000  -2.9798720    31.6916300    -14.8352800   115.7862000   -4.1899280    -127.8396000  
17350000000   -3.3734590    -144.5776000  -3.0474500    28.4117400    -14.7966800   112.7687000   -4.1766700    -131.0706000  
17400000000   -3.3745320    -147.8665000  -3.1317510    25.1098200    -14.7591300   109.6722000   -4.1429210    -134.4171000  
17450000000   -3.3801320    -151.1655000  -3.2057890    21.8157400    -14.7310400   106.7201000   -4.1418090    -137.5343000  
17500000000   -3.3904940    -154.4224000  -3.2833790    18.5253500    -14.6961400   103.5829000   -4.1198990    -140.9608000  
17550000000   -3.3740260    -157.7525000  -3.3423580    15.2586700    -14.6607700   100.5529000   -4.1093750    -144.1584000  
17600000000   -3.3778190    -160.9448000  -3.4219010    11.9289800    -14.6206000   97.5526700    -4.0849440    -147.3948000  
17650000000   -3.3844050    -164.2554000  -3.4926300    8.7688220     -14.5861100   94.4792300    -4.0801750    -150.7173000  
17700000000   -3.3665180    -167.6277000  -3.5699150    5.4303810     -14.5538400   91.3681800    -4.0599590    -154.0927000  
17750000000   -3.3799100    -170.9434000  -3.6435260    2.1291720     -14.5147100   88.2867700    -4.0362000    -157.4232000  
17800000000   -3.3553190    -174.2343000  -3.7172670    -1.2053760    -14.4889100   85.1790400    -4.0211150    -160.7814000  
17850000000   -3.3564810    -177.5429000  -3.7899810    -4.4912940    -14.4564500   82.1610300    -3.9961180    -163.9740000  
17900000000   -3.3525450    179.2289000   -3.8747310    -7.7636280    -14.4146600   79.0596600    -3.9863740    -167.4169000  
17950000000   -3.3741090    175.8320000   -3.9528670    -10.9774900   -14.3984000   76.0628400    -3.9460210    -170.5923000  
18000000000   -3.3597700    172.6071000   -4.0241080    -14.2282400   -14.3564800   72.9943900    -3.9508020    -173.9058000  
18050000000   -3.3777540    169.2030000   -4.1156840    -17.6155400   -14.3468000   69.7738400    -3.9118910    -177.3752000  
18100000000   -3.3378760    165.8743000   -4.1784150    -20.8717000   -14.3009900   66.6864900    -3.9094650    179.4149000   
18150000000   -3.3518320    162.5775000   -4.2780690    -24.1059200   -14.2809900   63.6152300    -3.8879030    176.0581000   
18200000000   -3.3315830    159.2947000   -4.3512040    -27.4621100   -14.2494500   60.5160200    -3.8810980    172.7536000   
18250000000   -3.3397710    155.9370000   -4.4267860    -30.6459400   -14.2177600   57.4495700    -3.8514690    169.3575000   
18300000000   -3.3090320    152.5781000   -4.5127630    -33.9851000   -14.1878700   54.3201900    -3.8291790    166.0545000   
18350000000   -3.3237700    149.3417000   -4.5994600    -37.2332600   -14.1670700   51.2684000    -3.8121710    162.7010000   
18400000000   -3.3052850    146.0509000   -4.6884970    -40.4666100   -14.1366300   48.1521100    -3.7992900    159.4165000   
18450000000   -3.3009030    142.8026000   -4.7661320    -43.7634000   -14.1166700   45.0676300    -3.7797560    155.9743000   
18500000000   -3.2998230    139.4106000   -4.8641020    -47.0143400   -14.0893600   41.9910900    -3.7584520    152.6988000   
18550000000   -3.2841720    136.0839000   -4.9377650    -50.3886800   -14.0635500   38.7974100    -3.7377280    149.2003000   
18600000000   -3.2802950    132.7293000   -5.0227480    -53.6977400   -14.0326100   35.7137200    -3.7102000    145.9046000   
18650000000   -3.2769810    129.4006000   -5.1212540    -56.9253400   -14.0084400   32.5668300    -3.6860300    142.4441000   
18700000000   -3.2720950    126.0106000   -5.2266350    -60.1801500   -14.0045300   29.4687300    -3.6609200    139.2292000   
18750000000   -3.2480900    122.8262000   -5.3032060    -63.4649400   -13.9668200   26.3719000    -3.6583330    135.8452000   
18800000000   -3.2375660    119.4028000   -5.3770010    -66.7009400   -13.9444000   23.2472300    -3.6113670    132.4607000   
18850000000   -3.2256100    116.0816000   -5.4636230    -69.9158500   -13.9132600   20.1098200    -3.6048960    129.1801000   
18900000000   -3.2063430    112.5931000   -5.5716210    -73.2757700   -13.9015400   16.9609800    -3.5640630    125.7139000   
18950000000   -3.1801580    109.4308000   -5.6693120    -76.4641900   -13.8930100   13.8301300    -3.5573450    122.4204000   
19000000000   -3.1917100    105.9921000   -5.7648740    -79.7688700   -13.8741700   10.7449800    -3.5280440    119.0275000   
19050000000   -3.1553470    102.7852000   -5.8658680    -82.9818200   -13.8466500   7.6327760     -3.5058510    115.8247000   
19100000000   -3.1820360    99.4659200    -5.9643780    -86.2250800   -13.8352000   4.5108870     -3.4988060    112.4192000   
19150000000   -3.1428970    95.9267600    -6.0514610    -89.5560900   -13.8147200   1.2815690     -3.4751720    109.0476000   
19200000000   -3.1343010    92.5319400    -6.1642590    -92.7388300   -13.8063400   -1.8445430    -3.4378730    105.6359000   
19250000000   -3.0720120    89.2850400    -6.2805770    -95.9868900   -13.8217100   -4.9587240    -3.4271330    102.3922000   
19300000000   -3.0788260    86.6540500    -6.3702210    -99.1374100   -13.7926700   -7.9677040    -3.4069770    98.9724900    
19350000000   -3.0982410    83.0054000    -6.4518690    -102.3053000  -13.7575900   -11.0494200   -3.3790670    95.8026700    
19400000000   -3.0746720    79.6961100    -6.5554150    -105.5891000  -13.7569800   -14.2251100   -3.3775510    92.4478900    
19450000000   -3.0724580    76.1981200    -6.6587460    -108.9710000  -13.7229700   -17.4512200   -3.3398810    88.9433800    
19500000000   -3.0321770    72.6602700    -6.7783730    -112.2266000  -13.7299000   -20.6735500   -3.3155390    85.5499900    
19550000000   -3.0094240    69.5653000    -6.8883420    -115.3536000  -13.7302300   -23.6884200   -3.2708240    82.4235900    
19600000000   -2.9999670    66.2689100    -6.9717570    -118.4923000  -13.7024000   -26.8452400   -3.2847340    79.1723600    
19650000000   -2.9572040    62.8072200    -7.0771460    -121.7930000  -13.7007100   -29.9994500   -3.2515850    75.5772500    
19700000000   -2.9362450    59.7152300    -7.2084650    -124.9455000  -13.6953500   -33.1256500   -3.2109660    72.4292100    
19750000000   -2.9336750    56.2881400    -7.3043640    -128.1961000  -13.6936400   -36.2161400   -3.2037820    69.1793900    
19800000000   -2.9142850    53.1437600    -7.4197320    -131.3754000  -13.6810700   -39.3323700   -3.1845240    65.8187800    
19850000000   -2.9382910    49.7196900    -7.5347440    -134.6600000  -13.6626300   -42.5653300   -3.1516840    62.4432600    
19900000000   -2.8816650    46.3000500    -7.6598090    -137.7025000  -13.6763800   -45.7014100   -3.1276100    59.1806600    
19950000000   -2.8655120    43.1446900    -7.7703660    -140.9155000  -13.6593600   -48.7629500   -3.1047880    56.0012600    
20000000000   -2.8384690    39.7120100    -7.8647170    -144.1906000  -13.6623000   -51.9523800   -3.0879640    52.6529200    
