!Mini-Circuits Laboratory
!S-Parameters
!Model: LEE2-6+
!Run / Lot / Date Code: N/A / N/A / N/A
!Fixture: TB-621+ DC 1602
!Network Analyzer: PNA-X N5242A - 423 4 ports;  Serial number: 71404
!Date: 4/12/2016 at 7:57:23 AM
!S/N: Unit# 1
!Tested with: 
!
# Hz  S  dB  R  50
!Frequency    S11 dB        S11 Deg       S21 dB        S21 Deg       S12 dB        S12 Deg       S22 dB        S22 Deg       
10000000      -13.6460900   0.6271535     19.3355100    178.3537000   -21.7928800   0.2362013     -12.3076900   0.6013125     
20000000      -13.5999900   -1.7849110    19.3638700    178.0121000   -21.9716800   -0.5796827    -13.4008000   -1.8497810    
30000000      -13.5604500   -3.2217940    19.3575000    177.0996000   -21.9712000   -1.1201810    -13.3789100   -3.1150120    
40000000      -13.4711800   -4.6147420    19.3278100    176.2708000   -21.9959400   -1.8153230    -13.4787300   -5.3058840    
50000000      -13.3329200   -6.4813040    19.2982300    175.4319000   -22.0460700   -2.0068810    -13.8448100   -7.1496540    
60000000      -13.5563800   -7.0289790    19.3170800    174.6487000   -21.9978200   -2.8930440    -13.8048700   -6.9867460    
70000000      -13.5368200   -7.5775250    19.3125700    173.6391000   -21.9700100   -3.4514220    -13.5446700   -7.9898330    
80000000      -13.4777100   -8.7562280    19.2991200    172.7287000   -21.9563500   -4.0687100    -13.4182100   -9.8507370    
90000000      -13.4671400   -9.8184180    19.2839400    171.8116000   -21.9388200   -4.5482790    -13.3689000   -11.0484400   
100000000     -13.4661500   -10.7930500   19.2829400    170.8737000   -21.9386500   -5.2294810    -13.3244800   -12.9815700   
150000000     -13.4870100   -16.0584600   19.2650000    166.4100000   -21.9857300   -7.7598400    -13.5670000   -19.3521100   
200000000     -13.4552200   -21.2249800   19.2465500    161.8237000   -21.9347700   -10.1569600   -13.3058900   -24.8851900   
250000000     -13.3948600   -26.9323000   19.2345800    157.4093000   -21.9705200   -12.6912400   -13.4986400   -31.1163800   
300000000     -13.4022400   -31.7613400   19.2073000    152.7901000   -21.9501100   -14.9151100   -13.3862900   -35.8666500   
350000000     -13.3835300   -37.1449900   19.1902000    148.3149000   -21.9581800   -17.4755000   -13.3691900   -42.0636500   
400000000     -13.3589900   -41.8415300   19.1655400    143.8031000   -21.9189200   -19.7373300   -13.2504000   -46.0072300   
450000000     -13.2839500   -46.9211000   19.1352600    139.3182000   -21.9305600   -22.3034500   -13.3105000   -52.2078400   
500000000     -13.2473600   -52.0056800   19.1002400    134.9498000   -21.8722500   -24.8255700   -12.9925300   -57.5227800   
550000000     -13.1844600   -57.0356300   19.0568700    130.4846000   -21.8746700   -27.4494100   -13.0129600   -64.0181000   
600000000     -13.1908500   -62.0427300   19.0342100    126.0166000   -21.8953300   -29.9158100   -13.0980700   -69.8044000   
650000000     -13.0734400   -66.7040000   18.9747100    121.5575000   -21.8154400   -32.3724500   -12.7408800   -74.2147100   
700000000     -12.9466200   -71.7601000   18.9043300    117.1721000   -21.8005600   -34.8527300   -12.6947600   -79.5746800   
750000000     -12.9016400   -76.6283500   18.8754100    112.7905000   -21.7722900   -37.2991100   -12.5955200   -84.3869900   
800000000     -12.8195800   -81.3799900   18.8232000    108.3772000   -21.7689000   -39.8139000   -12.5741500   -89.9059800   
850000000     -12.7748200   -86.3141400   18.7847700    104.0813000   -21.7267300   -42.1818400   -12.4994500   -94.1558300   
900000000     -12.6983500   -90.9041100   18.7318800    99.6231300    -21.7000900   -44.7095100   -12.4105600   -99.1819200   
950000000     -12.6024000   -95.3111600   18.6685300    95.3393400    -21.6864200   -47.2359700   -12.3667400   -104.4581000  
1000000000    -12.4815400   -100.4124000  18.6134000    91.1029900    -21.6227700   -49.7820100   -12.1628100   -108.6124000  
1050000000    -12.4071900   -104.7456000  18.5462600    86.7894400    -21.6352400   -52.5891000   -12.0971500   -115.1965000  
1100000000    -12.3528200   -109.7330000  18.4989500    82.5368400    -21.5855200   -55.1032000   -11.9758200   -119.4428000  
1150000000    -12.2770400   -113.3867000  18.4174900    78.0650600    -21.5096200   -57.4801800   -11.7971100   -122.6114000  
1200000000    -12.1800000   -118.2548000  18.3621200    73.9318700    -21.5288900   -60.0602400   -11.8695500   -128.2521000  
1250000000    -12.1052300   -122.3435000  18.2925600    69.6175200    -21.4225500   -62.5893600   -11.5843400   -131.4617000  
1300000000    -12.0157300   -127.0864000  18.2371900    65.4067200    -21.4611800   -65.1849700   -11.7282800   -137.3824000  
1350000000    -11.9471400   -130.9188000  18.1640300    61.0730900    -21.3926700   -67.8336000   -11.5356700   -141.4780000  
1400000000    -11.8448800   -135.5006000  18.0910200    56.9107400    -21.3132200   -70.4474800   -11.3508300   -145.0018000  
1450000000    -11.7513800   -140.0295000  18.0265100    52.8392000    -21.3808000   -72.9163700   -11.5739300   -151.0808000  
1500000000    -11.6749000   -144.2225000  17.9588900    48.6443100    -21.3030600   -75.7023200   -11.3332600   -155.1202000  
1550000000    -11.5894900   -148.2235000  17.8701000    44.4643100    -21.2745500   -78.1849200   -11.3392200   -159.1932000  
1600000000    -11.4423200   -152.6541000  17.7950500    40.4413300    -21.1986500   -80.8670500   -11.1688400   -162.7732000  
1650000000    -11.3948600   -156.7244000  17.7361600    36.2596900    -21.2729400   -83.4399200   -11.3627800   -169.1437000  
1700000000    -11.3110100   -160.6039000  17.6494600    32.0732100    -21.1314200   -86.1045400   -11.0773200   -171.1240000  
1750000000    -11.2119000   -164.5945000  17.5655400    28.0217700    -21.0733400   -88.5733000   -11.0434200   -174.7970000  
1800000000    -11.1747500   -168.6503000  17.4985200    23.8712400    -21.1142800   -91.2124600   -11.1539900   179.6985000   
1850000000    -11.1353400   -172.2847000  17.4069300    19.6469000    -20.9963000   -93.9764700   -10.8982900   176.9725000   
1900000000    -11.0106400   -176.6562000  17.3396800    15.7042300    -21.0153400   -96.4358700   -11.0741600   172.2304000   
1950000000    -10.9085400   179.2712000   17.2594000    11.6675400    -20.9178900   -99.0843800   -10.9372300   169.2757000   
2000000000    -10.8637100   175.3203000   17.1905000    7.6475180     -20.9318200   -101.7329000  -10.9641200   164.2525000   
2050000000    -10.8155200   171.4882000   17.1074700    3.6043460     -20.8734800   -104.3168000  -10.9305900   160.7401000   
2100000000    -10.6946100   167.0918000   17.0356600    -0.2015345    -20.7671000   -107.2825000  -10.6945500   157.4721000   
2150000000    -10.6454800   163.5704000   16.9434200    -4.3756210    -20.7609900   -109.7815000  -10.8055000   153.3334000   
2200000000    -10.5513400   159.3893000   16.8786900    -8.1494970    -20.7823500   -112.6454000  -10.7757800   148.0114000   
2250000000    -10.5321500   155.9928000   16.7787100    -12.3961800   -20.6402000   -115.2196000  -10.6550700   146.3827000   
2300000000    -10.4417200   152.2688000   16.6861400    -16.3245600   -20.5234900   -118.1236000  -10.4481700   143.5686000   
2350000000    -10.4131900   148.2197000   16.6300900    -20.3090200   -20.6307500   -120.6954000  -10.6990700   137.1352000   
2400000000    -10.3253600   144.9529000   16.5175900    -24.2865100   -20.4954600   -123.8276000  -10.3695000   134.6023000   
2450000000    -10.2773800   140.5161000   16.4695500    -28.0727200   -20.5449100   -126.2004000  -10.6163200   129.5381000   
2500000000    -10.2173900   136.9241000   16.3774100    -32.0763700   -20.3973100   -129.1826000  -10.3640400   127.3832000   
2550000000    -10.1580000   132.6674000   16.3234200    -35.8464300   -20.4979000   -131.8234000  -10.5863200   120.9976000   
2600000000    -10.1684600   129.2930000   16.2336700    -40.0045800   -20.3065000   -134.7691000  -10.3095000   120.0380000   
2650000000    -10.0555000   125.1060000   16.1605200    -43.6612300   -20.3802100   -137.3804000  -10.5100700   114.2178000   
2700000000    -9.9984170    121.5763000   16.0673000    -47.6681300   -20.2680800   -140.2548000  -10.3681100   111.7936000   
2750000000    -9.9164520    117.9946000   15.9728200    -51.4041700   -20.2708400   -143.1008000  -10.3885300   107.0938000   
2800000000    -9.9523550    114.1560000   15.9116900    -55.4674800   -20.2175300   -145.7414000  -10.4126700   103.7440000   
2850000000    -9.8422080    110.4734000   15.8128300    -59.2362400   -20.1152300   -148.7054000  -10.2916000   101.0358000   
2900000000    -9.8446090    106.7351000   15.7507300    -63.2056100   -20.1593000   -151.3247000  -10.4489600   96.0348400    
2950000000    -9.8174420    103.0951000   15.6610300    -67.1203400   -20.0155800   -154.3836000  -10.2433900   93.9078400    
3000000000    -9.7352310    98.7643500    15.6090800    -70.7004400   -20.1363800   -156.9317000  -10.4886500   87.5193700    
3050000000    -9.7134150    95.6254000    15.5063200    -74.7232500   -19.9535100   -160.0967000  -10.2131100   86.0939900    
3100000000    -9.6771890    91.5855600    15.4425000    -78.4248600   -20.0297300   -162.7033000  -10.4172100   80.5050400    
3150000000    -9.6836150    88.2032800    15.3527700    -82.4576400   -19.8774500   -165.6270000  -10.2965800   78.9685400    
3200000000    -9.5565290    84.4510000    15.2410700    -86.1009100   -19.9036400   -168.5344000  -10.3462900   74.0035300    
3250000000    -9.5981460    80.7348600    15.2011100    -90.0235600   -19.8803500   -171.5215000  -10.2858000   70.0066800    
3300000000    -9.4479920    76.5377300    15.1132700    -93.4597900   -19.7958000   -174.7199000  -10.1334400   66.9260600    
3350000000    -9.5158460    73.1825100    15.0388500    -97.5633500   -19.7556100   -177.2015000  -10.2735100   63.5468100    
3400000000    -9.5056840    69.8928500    14.9572600    -101.5024000  -19.7413200   179.7453000   -10.2274900   59.3555300    
3450000000    -9.4559200    65.6968900    14.8890200    -105.0630000  -19.7202000   176.9043000   -10.2756500   55.5527300    
3500000000    -9.4237840    62.7755200    14.7702100    -109.1808000  -19.5657500   173.8168000   -10.1290000   53.8829200    
3550000000    -9.3486850    57.7879600    14.7450700    -112.4235000  -19.7453200   171.7040000   -10.5485100   46.8877900    
3600000000    -9.3162450    54.6773400    14.6355000    -116.3458000  -19.5527700   168.2968000   -10.2972900   45.7184600    
3650000000    -9.2537260    50.9972000    14.5542900    -120.0509000  -19.5069700   165.1274000   -10.1812500   42.2020900    
3700000000    -9.2982220    47.0201900    14.5081700    -123.9367000  -19.4240400   162.2188000   -10.1871300   39.0875500    
3750000000    -9.1954870    43.9871100    14.3702100    -127.6231000  -19.5098200   159.7039000   -10.3945700   33.8259800    
3800000000    -9.2671560    39.5212000    14.3574700    -131.4055000  -19.5458300   156.9412000   -10.4975600   29.0725900    
3850000000    -9.1892540    36.3893700    14.2433700    -135.1750000  -19.2926100   153.3061000   -10.1532000   28.9136100    
3900000000    -9.1557150    31.7155200    14.2168900    -138.6483000  -19.4440700   151.2981000   -10.5766500   22.3296500    
3950000000    -9.1501400    29.7784800    14.0404900    -142.9551000  -19.2414400   147.4414000   -10.2099400   21.4387900    
4000000000    -9.1059070    24.6864600    14.0504300    -146.1891000  -19.4243800   145.2949000   -10.5390700   14.4706900    
4050000000    -9.0615520    21.3547200    13.9394900    -150.0100000  -19.1794900   141.3038000   -10.1651100   14.1654500    
4100000000    -8.9708040    17.0386500    13.8870000    -153.3847000  -19.3745000   139.5927000   -10.6526800   7.0748940     
4150000000    -9.0500650    13.4162900    13.8305600    -157.4942000  -19.2683200   136.0228000   -10.4520700   4.6231190     
4200000000    -8.8985630    10.1624900    13.6844500    -160.9123000  -19.2294900   132.9598000   -10.4077100   1.3128400     
4250000000    -9.1108120    6.5217610     13.6688700    -165.1725000  -19.1934000   130.1509000   -10.4698500   -2.3078520    
4300000000    -8.8350100    2.4097140     13.5552900    -168.2029000  -19.1810100   127.0367000   -10.4398700   -6.0237300    
4350000000    -8.9440880    -1.3615340    13.5263100    -172.2209000  -19.2163300   124.5947000   -10.6508200   -10.6572000   
4400000000    -8.8576460    -5.0227430    13.4178000    -175.7149000  -19.1283800   120.7756000   -10.3753400   -13.1420700   
4450000000    -8.8711870    -8.8220830    13.3671700    -179.4628000  -19.1088300   118.5108000   -10.6077000   -16.8823200   
4500000000    -8.8543430    -12.4692200   13.2859600    176.7310000   -19.1212500   115.3796000   -10.6011300   -21.0837300   
4550000000    -8.7075050    -16.8368500   13.2173900    173.5991000   -19.1659400   112.9236000   -10.7825900   -25.7152000   
4600000000    -8.7940250    -19.7200900   13.1189100    169.4222000   -19.0354700   109.1456000   -10.5546200   -27.7120800   
4650000000    -8.7158830    -24.3994800   13.0880800    166.0874000   -19.0867800   106.4355000   -10.6440800   -32.2280200   
4700000000    -8.7555880    -26.9335600   12.9736600    161.9710000   -19.0256300   103.4468000   -10.6583600   -35.3118900   
4750000000    -8.7407320    -31.1731000   12.9204000    158.4619000   -19.0978500   100.5327000   -10.6842800   -40.2480400   
4800000000    -8.6199610    -35.4937300   12.8630400    155.1323000   -19.0652800   97.9274300    -10.8224000   -43.7749700   
4850000000    -8.5745670    -38.4903400   12.7366100    151.3597000   -19.0382200   94.6388000    -10.7444400   -47.1329600   
4900000000    -8.6532600    -43.1841000   12.7568600    147.7909000   -19.0556800   92.3708000    -10.9722900   -51.4299100   
4950000000    -8.6015330    -46.5275300   12.6462900    143.9907000   -18.9750200   88.8610500    -10.8413100   -54.0694600   
5000000000    -8.5817200    -50.8379900   12.6109700    140.4604000   -19.0394900   86.3770600    -10.9758800   -58.9636600   
5050000000    -8.4928060    -53.6904600   12.4612700    136.8627000   -18.9111400   82.4024700    -10.7366000   -60.4986700   
5100000000    -8.4579460    -57.9767400   12.4121100    133.3660000   -19.0726500   80.7393000    -11.0898200   -67.0376500   
5150000000    -8.4564900    -61.1066300   12.3288800    129.5054000   -18.9146700   76.6973100    -10.8657500   -68.1073200   
5200000000    -8.4874930    -65.4668100   12.3053200    125.9259000   -19.0277500   74.9442800    -11.1634400   -74.1619600   
5250000000    -8.4436470    -69.3168800   12.2288300    122.3649000   -18.8834100   71.0546100    -10.9814300   -75.3147000   
5300000000    -8.3662340    -72.3541800   12.1014600    118.6938000   -18.9307100   68.6197500    -11.1392200   -80.0094000   
5350000000    -8.4113050    -76.3724200   12.0831400    115.0213000   -18.9500000   65.6642800    -11.1100100   -83.8453900   
5400000000    -8.3108770    -80.5352000   12.0023400    111.6630000   -18.9270900   62.5082300    -11.0896100   -87.2593300   
5450000000    -8.3589540    -83.9027700   11.9411800    107.8440000   -18.8947800   59.6139900    -11.1574300   -90.4872300   
5500000000    -8.3244590    -88.2821700   11.8919700    104.3801000   -18.9179600   57.1378100    -11.2799000   -94.8665500   
5550000000    -8.2045040    -91.1978900   11.7565700    100.7716000   -18.9179500   54.3776400    -11.3277000   -98.7677400   
5600000000    -8.2344240    -94.8200300   11.7063100    97.0621400    -18.8696700   50.7023300    -11.1686300   -101.1084000  
5650000000    -8.1549300    -98.7613500   11.6282100    93.7465700    -18.8385400   47.5937800    -11.1748700   -104.1573000  
5700000000    -8.1743960    -102.5920000  11.5855500    89.9709100    -18.8720600   44.9778000    -11.2365200   -108.5596000  
5750000000    -8.1902280    -106.0213000  11.5109500    86.1867500    -18.8830800   41.7847300    -11.1696400   -112.0711000  
5800000000    -8.1558340    -109.9117000  11.4612300    82.7810300    -18.8904100   39.2319000    -11.2695200   -116.0029000  
5850000000    -8.0741930    -112.9566000  11.3427800    79.0448900    -18.8280100   35.7113800    -11.1934300   -118.3985000  
5900000000    -8.0879620    -117.3028000  11.3197200    75.6392000    -18.9021200   33.9484100    -11.4212800   -123.8785000  
5950000000    -8.0318710    -121.1645000  11.2504900    72.1102000    -18.8257800   29.7043900    -11.1829200   -125.4031000  
6000000000    -7.9918110    -124.9877000  11.1843800    68.5748100    -18.8379300   27.1537600    -11.2592000   -129.5262000  
6050000000    -8.0388870    -128.4701000  11.1114400    64.7744900    -18.8442600   23.9755400    -11.2213600   -132.8217000  
6100000000    -7.9133740    -132.2960000  11.0376800    61.4652800    -18.9194500   22.1534300    -11.3885500   -138.2889000  
6150000000    -7.9110580    -135.5815000  10.9563700    57.7999800    -18.8782100   18.4794600    -11.2656000   -140.4793000  
6200000000    -7.8636310    -139.4318000  10.8922100    54.3067500    -18.8721900   15.6698900    -11.2903900   -144.0732000  
6250000000    -7.8670130    -142.8322000  10.8299400    50.5761800    -18.8570700   12.3317900    -11.2078900   -146.9490000  
6300000000    -7.8465480    -146.3488000  10.7550600    46.9096300    -18.8775100   9.5429490     -11.2141800   -150.8927000  
6350000000    -7.8019760    -150.3729000  10.7068000    43.4222500    -18.8997300   6.6527140     -11.1917100   -154.6536000  
6400000000    -7.7494000    -154.0498000  10.6250900    40.0274700    -18.9254500   3.6675960     -11.1655400   -158.1724000  
6450000000    -7.6860560    -158.0590000  10.5719500    36.5829100    -18.9298900   1.1508040     -11.2263900   -162.1824000  
6500000000    -7.7076060    -161.2368000  10.5024300    32.8550100    -18.9251500   -1.7683620    -11.2167300   -165.5066000  
6550000000    -7.6626470    -165.0104000  10.4313100    29.3832900    -18.9416200   -4.5297470    -11.2313700   -169.2663000  
6600000000    -7.6633960    -168.1886000  10.3560800    25.5899500    -18.8856600   -8.0935520    -11.1611800   -171.4426000  
6650000000    -7.5427850    -172.1961000  10.2846500    22.4340200    -18.9556900   -10.6228600   -11.1485100   -175.7903000  
6700000000    -7.5067360    -175.5241000  10.2071600    18.8449600    -18.9312800   -13.8488100   -11.1113700   -178.5342000  
6750000000    -7.4875200    -179.1236000  10.1322300    15.2866900    -18.9929100   -16.3796800   -11.1119400   177.1521000   
6800000000    -7.5498720    177.2233000   10.1032800    11.5115100    -18.9697900   -19.5485000   -11.0843000   174.3087000   
6850000000    -7.4533390    173.8291000   10.0050900    8.0997600     -18.9920000   -21.9145900   -11.1414600   170.1907000   
6900000000    -7.4667350    169.8916000   9.9561650     4.5377000     -18.9874500   -24.6546200   -11.1460400   166.5708000   
6950000000    -7.3606920    166.5686000   9.8640850     1.0619120     -18.9960100   -28.1417900   -11.0261000   163.9395000   
7000000000    -7.3899760    162.5462000   9.8497730     -2.4449910    -19.0060000   -30.5785200   -11.0651800   159.9805000   
7050000000    -7.3175390    159.2770000   9.7370560     -5.9382070    -19.0278300   -33.8455700   -10.9761000   157.0445000   
7100000000    -7.3123050    155.7083000   9.6936190     -9.5391450    -19.0547600   -35.8879000   -11.0512700   152.4570000   
7150000000    -7.2259140    152.2285000   9.5894760     -12.9890200   -19.0671200   -39.4251700   -10.9282600   149.8312000   
7200000000    -7.2007350    148.6379000   9.5359390     -16.5147100   -19.0624700   -41.9272500   -10.9592400   146.1945000   
7250000000    -7.2007440    144.8948000   9.4891070     -20.0255400   -19.0727100   -45.0712000   -10.9012000   143.1717000   
7300000000    -7.1445390    141.1807000   9.4215150     -23.3912100   -19.0962900   -47.9292400   -10.8599600   139.7230000   
7350000000    -7.1367400    138.0325000   9.3468900     -27.1780100   -19.1297900   -50.9618500   -10.7797300   136.5414000   
7400000000    -7.0668050    134.3956000   9.2729420     -30.5376600   -19.1398700   -53.6468100   -10.7684000   133.0347000   
7450000000    -7.0363660    131.0807000   9.1840480     -34.1536500   -19.1139700   -56.2602700   -10.8091100   129.5978000   
7500000000    -7.0222430    127.3844000   9.1457920     -37.6495500   -19.1339200   -59.2997400   -10.7295400   126.5172000   
7550000000    -6.9816640    123.4907000   9.1008960     -40.9297000   -19.1130500   -62.0347900   -10.7371200   123.1815000   
7600000000    -6.9358880    120.1795000   9.0055880     -44.4569600   -19.1208200   -65.0439800   -10.6841400   120.1280000   
7650000000    -6.8992870    116.6810000   8.9436240     -48.0728100   -19.1765700   -67.8668000   -10.5977500   116.5979000   
7700000000    -6.8509830    113.3322000   8.8752580     -51.6205300   -19.1916300   -70.9372000   -10.5249600   113.6391000   
7750000000    -6.8155850    109.5396000   8.8161470     -54.8909600   -19.2088700   -73.2519900   -10.5411200   109.7145000   
7800000000    -6.8022040    106.1628000   8.7489270     -58.5245000   -19.1899600   -76.4724200   -10.4953100   107.0775000   
7850000000    -6.7527670    102.5737000   8.6829600     -61.9562600   -19.2214200   -78.8086200   -10.4679500   103.1273000   
7900000000    -6.7115400    99.3480500    8.6103300     -65.5507800   -19.2456400   -82.3747300   -10.3476800   100.7701000   
7950000000    -6.6468500    95.7020800    8.5380190     -68.9469000   -19.2722200   -84.8313900   -10.3091300   97.1279200    
8000000000    -6.6359120    92.2041200    8.4733910     -72.4680100   -19.2789300   -87.3689200   -10.2891400   93.4745700    
8050000000    -6.5893010    88.6334600    8.4121020     -75.9202300   -19.2981900   -89.9382600   -10.2599800   89.9907800    
8100000000    -6.5977630    85.0463300    8.3705010     -79.4745300   -19.2830900   -92.4639700   -10.2520300   86.4782100    
8150000000    -6.5295570    81.6573300    8.2802680     -82.8789700   -19.2871200   -95.4546600   -10.2121800   83.5863300    
8200000000    -6.5114780    78.2465100    8.2209010     -86.4773500   -19.2918000   -98.2739600   -10.1736600   80.3131000    
8250000000    -6.4733890    74.5802400    8.1543330     -89.8278400   -19.3246000   -101.2298000  -10.0918300   77.2677700    
8300000000    -6.4097450    71.0531500    8.0857980     -93.2071100   -19.3196200   -103.8329000  -10.0747300   73.9042700    
8350000000    -6.4047070    67.6609400    8.0231530     -96.7959800   -19.3338900   -106.6761000  -10.0161300   70.7061200    
8400000000    -6.3722220    64.0998200    7.9640250     -100.2928000  -19.3066600   -109.2072000  -10.0356000   67.2690900    
8450000000    -6.3288210    60.6859600    7.8970110     -103.7014000  -19.3217400   -111.8809000  -9.9743370    63.9585700    
8500000000    -6.2718510    57.1485100    7.8328800     -107.1026000  -19.3465700   -115.1648000  -9.9083580    61.4646500    
8550000000    -6.2126580    53.7069100    7.7438480     -110.4995000  -19.3331000   -117.8138000  -9.8911880    58.0966500    
8600000000    -6.2174320    50.2858200    7.6913970     -114.2185000  -19.3681600   -120.7860000  -9.8072730    55.1313700    
8650000000    -6.1757030    46.7564900    7.6331540     -117.5677000  -19.3692000   -123.3664000  -9.7737180    51.6947300    
8700000000    -6.1521190    43.3744100    7.5653450     -121.1365000  -19.3646700   -126.2641000  -9.7431540    48.7364900    
8750000000    -6.0942730    39.8365700    7.5024080     -124.4507000  -19.3570800   -128.8385000  -9.7183830    45.3448200    
8800000000    -6.0577870    36.3563500    7.4345570     -127.8811000  -19.3572000   -131.5468000  -9.6794090    42.0868800    
8850000000    -6.0210970    32.8519300    7.3687830     -131.3354000  -19.3813200   -134.5957000  -9.6021260    39.3038100    
8900000000    -6.0072670    29.4321600    7.3058170     -134.8848000  -19.3791300   -137.3003000  -9.5808520    36.0875300    
8950000000    -5.9723630    25.9726000    7.2322130     -138.3568000  -19.4136000   -140.2952000  -9.4973160    33.1170900    
9000000000    -5.9119200    22.5135700    7.1602320     -141.7009000  -19.3898400   -142.7999000  -9.4985040    29.7589000    
9050000000    -5.8518770    19.1810500    7.0719700     -145.1593000  -19.4054800   -145.6494000  -9.4414900    26.7199700    
9100000000    -5.8461550    15.7041500    7.0189590     -148.6252000  -19.4175100   -148.5952000  -9.3910010    23.7877900    
9150000000    -5.8141500    12.3491300    6.9543610     -152.1102000  -19.4243700   -151.4841000  -9.3339470    20.7848800    
9200000000    -5.7795790    8.9730220     6.9003890     -155.5892000  -19.4490500   -154.2280000  -9.2715580    17.6362700    
9250000000    -5.7501800    5.5186610     6.8209530     -159.0553000  -19.4469100   -156.9024000  -9.2455240    14.5409200    
9300000000    -5.7179010    2.0957910     6.7658910     -162.5982000  -19.4569000   -159.6628000  -9.1904320    11.2521200    
9350000000    -5.6890900    -1.5138790    6.7011360     -165.8146000  -19.4405500   -162.2116000  -9.1795100    7.9154180     
9400000000    -5.6451830    -4.7275750    6.6197140     -169.3425000  -19.4681700   -165.0936000  -9.1156670    4.9942790     
9450000000    -5.6239340    -8.2557150    6.5662080     -172.7906000  -19.4771900   -167.8098000  -9.0653110    1.7844250     
9500000000    -5.5636730    -11.5411800   6.4928740     -176.2177000  -19.4938200   -170.7438000  -8.9998040    -1.1525480    
9550000000    -5.5388240    -14.9549000   6.4222760     -179.6639000  -19.4988500   -173.3297000  -8.9659470    -4.4051980    
9600000000    -5.4956500    -18.5289800   6.3614600     176.9248000   -19.4773000   -175.9224000  -8.9437240    -7.8540530    
9650000000    -5.4624250    -21.8872300   6.2866780     173.4700000   -19.5151400   -178.6748000  -8.8637130    -10.8178400   
9700000000    -5.4439380    -25.2576200   6.2182500     170.0320000   -19.5201700   178.3093000   -8.8216670    -13.6961200   
9750000000    -5.3855160    -28.5270700   6.1319740     166.5497000   -19.5159400   175.7729000   -8.7798840    -17.0052100   
9800000000    -5.3778660    -31.8258900   6.0809450     163.0885000   -19.5336300   173.0220000   -8.7266690    -20.0980200   
9850000000    -5.3227380    -35.3882600   6.0195970     159.7424000   -19.5431400   170.2415000   -8.6824570    -23.2652500   
9900000000    -5.2936360    -38.8052200   5.9482690     156.3654000   -19.5174400   167.7681000   -8.6609960    -26.5961800   
9950000000    -5.2465400    -42.1652500   5.8787780     152.9444000   -19.5383400   164.8529000   -8.5970480    -29.5387900   
10000000000   -5.2104430    -45.5184900   5.7951310     149.4186000   -19.5413600   162.1698000   -8.5580600    -32.7456300   
10050000000   -5.1798970    -48.7727200   5.7388080     146.0338000   -19.5510200   159.4170000   -8.4996120    -35.7454400   
10100000000   -5.1431540    -52.1809400   5.6536990     142.6805000   -19.5609300   156.6658000   -8.4528260    -38.8305700   
10150000000   -5.1096530    -55.5116600   5.5893260     139.2631000   -19.5471900   154.1015000   -8.4226380    -42.1646800   
10200000000   -5.0753650    -58.8781100   5.5204560     135.7944000   -19.5889800   151.1187000   -8.3331610    -45.0319900   
10250000000   -5.0332940    -62.1635100   5.4396430     132.4010000   -19.5821000   148.5370000   -8.3032140    -48.2115100   
10300000000   -5.0010330    -65.3770400   5.3713220     128.8796000   -19.6007800   145.6385000   -8.2357510    -51.2147000   
10350000000   -4.9700160    -68.8695500   5.2913580     125.5389000   -19.5829700   143.0963000   -8.1982470    -54.5904700   
10400000000   -4.9309960    -72.1728200   5.2379880     122.1159000   -19.6070600   140.3176000   -8.1404760    -57.5832700   
10450000000   -4.8911980    -75.5383000   5.1462080     118.7660000   -19.6098500   137.5034000   -8.0731880    -60.6371800   
10500000000   -4.8701310    -78.8221400   5.0842130     115.2952000   -19.6019600   134.8741000   -8.0438690    -63.7925400   
10550000000   -4.8220020    -81.9243000   4.9893160     111.8872000   -19.6391800   132.0977000   -7.9594050    -66.7393600   
10600000000   -4.7850410    -85.3944300   4.9379510     108.5303000   -19.6089500   129.5274000   -7.9359060    -70.0108500   
10650000000   -4.7496660    -88.5015100   4.8492650     105.1611000   -19.6595900   126.6856000   -7.8511480    -72.9546100   
10700000000   -4.7273630    -91.9107000   4.7777300     101.8040000   -19.6277200   124.2233000   -7.8330490    -76.2242800   
10750000000   -4.6925870    -95.0113300   4.7094150     98.2853400    -19.6715100   121.2965000   -7.7504960    -79.1278700   
10800000000   -4.6574840    -98.4062700   4.6300370     94.9644000    -19.6552700   118.7246000   -7.7066970    -82.2613200   
10850000000   -4.6203750    -101.5709000  4.5449090     91.5252100    -19.6663400   115.9875000   -7.6608030    -85.3283200   
10900000000   -4.5903140    -104.9160000  4.4611390     88.2172300    -19.6618400   113.3330000   -7.5989430    -88.4965700   
10950000000   -4.5635490    -108.1094000  4.4121360     84.7922800    -19.6807400   110.5920000   -7.5575890    -91.4958200   
11000000000   -4.5278000    -111.2847000  4.3165440     81.4093200    -19.6864600   107.8932000   -7.4889460    -94.5929100   
11050000000   -4.5089570    -114.5248000  4.2527050     78.0413200    -19.6701700   105.3460000   -7.4572870    -97.7125300   
11100000000   -4.4621010    -117.6443000  4.1567370     74.6903300    -19.6905700   102.5552000   -7.3793230    -100.7230000  
11150000000   -4.4356820    -121.0071000  4.0886220     71.4090100    -19.6657500   100.0278000   -7.3572980    -103.8967000  
11200000000   -4.4120260    -124.0492000  4.0158930     67.9383500    -19.7070900   97.2492200    -7.2728770    -106.8450000  
11250000000   -4.3836450    -127.3431000  3.9343840     64.7824800    -19.6705300   94.8226200    -7.2578840    -110.1176000  
11300000000   -4.3490610    -130.3467000  3.8608250     61.2070400    -19.7181600   91.9128600    -7.1667400    -112.9274000  
11350000000   -4.3226820    -133.5707000  3.7756970     58.1144200    -19.6653400   89.5548000    -7.1324550    -116.1393000  
11400000000   -4.2858240    -136.7076000  3.6976270     54.6573900    -19.6990100   86.6901000    -7.0764700    -119.1444000  
11450000000   -4.2564020    -139.9308000  3.6152760     51.4596100    -19.6759800   84.1810200    -7.0209050    -122.2114000  
11500000000   -4.2340330    -143.1461000  3.5613620     48.0438800    -19.6573000   81.5888100    -6.9967430    -125.4636000  
11550000000   -4.2049780    -146.1934000  3.4667680     44.7102400    -19.6745200   78.9232300    -6.9217430    -128.3945000  
11600000000   -4.1836070    -149.3528000  3.3978440     41.4589000    -19.6448200   76.4009100    -6.8992620    -131.4920000  
11650000000   -4.1529470    -152.4026000  3.3005800     38.0737200    -19.6755900   73.6113700    -6.8223610    -134.4127000  
11700000000   -4.1217500    -155.5842000  3.2349710     34.8654600    -19.6294100   71.1764600    -6.8054910    -137.5815000  
11750000000   -4.0994100    -158.6669000  3.1655940     31.4839600    -19.6402800   68.4330200    -6.7233010    -140.5074000  
11800000000   -4.0579370    -161.8327000  3.0998380     28.2474800    -19.6001400   65.8710200    -6.7055340    -143.7055000  
11850000000   -4.0521940    -164.8962000  3.0154960     24.9074900    -19.6125000   63.1549500    -6.6426980    -146.5973000  
11900000000   -4.0180590    -167.9438000  2.9330290     21.6359100    -19.5918500   60.5895800    -6.5978770    -149.6532000  
11950000000   -4.0094360    -171.1206000  2.8684770     18.3820000    -19.5696400   57.9899500    -6.5768320    -152.8158000  
12000000000   -3.9742810    -174.2183000  2.7689320     15.1116000    -19.5694300   55.3171200    -6.5095600    -155.6802000  
12050000000   -3.9559570    -177.2604000  2.7138970     11.7447700    -19.5464200   52.7341100    -6.4716510    -158.7585000  
12100000000   -3.9326320    179.6339000   2.6291650     8.3971060     -19.5589400   50.0173600    -6.4067230    -161.6012000  
12150000000   -3.9041590    176.5997000   2.5641080     5.1794790     -19.5106000   47.4704300    -6.3901380    -164.7480000  
12200000000   -3.8838350    173.5198000   2.5020230     1.9288550     -19.5060900   44.7476700    -6.3347600    -167.6878000  
12250000000   -3.8716780    170.3433000   2.4137200     -1.3224240    -19.4690400   42.2096400    -6.3159340    -170.8509000  
12300000000   -3.8598350    167.3790000   2.3502580     -4.6931980    -19.4696000   39.4963200    -6.2548220    -173.7688000  
12350000000   -3.8214160    164.1737000   2.2682840     -7.9720140    -19.4293700   36.8539200    -6.2277640    -176.8364000  
12400000000   -3.8037550    161.2805000   2.1975580     -11.1490300   -19.4266900   34.2431700    -6.1722090    -179.7012000  
12450000000   -3.7853650    158.1186000   2.1220440     -14.4272700   -19.4240100   31.5356000    -6.1250210    177.2928000   
12500000000   -3.7684270    155.1810000   2.0389000     -17.5985000   -19.3687600   29.0068700    -6.1119160    174.2138000   
12550000000   -3.7415360    152.0399000   1.9706620     -21.0212400   -19.3889500   26.2103600    -6.0275310    171.4115000   
12600000000   -3.7300960    149.0356000   1.9017880     -24.1679100   -19.3313300   23.6873900    -6.0236860    168.2896000   
12650000000   -3.7204950    145.9998000   1.8238960     -27.5534500   -19.3379300   20.9880200    -5.9637290    165.4145000   
12700000000   -3.7049040    142.9980000   1.7520290     -30.6739200   -19.2858800   18.3395600    -5.9458570    162.2292000   
12750000000   -3.6861050    139.9317000   1.6876370     -33.9823300   -19.2664000   15.6372300    -5.9050770    159.3113000   
12800000000   -3.6664960    136.9391000   1.6086680     -37.1337900   -19.2493300   13.0175200    -5.8579500    156.3221000   
12850000000   -3.6527730    133.8744000   1.5496570     -40.4393200   -19.1877400   10.3040700    -5.8539180    153.1733000   
12900000000   -3.6365970    130.7805000   1.4649910     -43.6867600   -19.1993300   7.6612800     -5.7803170    150.3309000   
12950000000   -3.6131820    127.8809000   1.3970300     -46.8464400   -19.1587100   5.0483230     -5.7583850    147.3259000   
13000000000   -3.6036180    124.8664000   1.3207490     -50.0958700   -19.1775200   2.3889010     -5.6944960    144.4512000   
13050000000   -3.5892420    121.7950000   1.2591800     -53.2658800   -19.0926800   -0.2061346    -5.6958110    141.3591000   
13100000000   -3.5734880    118.8802000   1.1861990     -56.5765700   -19.1042300   -2.9039230    -5.6297660    138.4325000   
13150000000   -3.5615290    115.7940000   1.1249880     -59.7637600   -19.0443600   -5.5034130    -5.6161440    135.4577000   
13200000000   -3.5422430    112.9030000   1.0491440     -62.9711200   -19.0320200   -8.1981170    -5.5679770    132.4656000   
13250000000   -3.5297470    109.8128000   0.9793727     -66.2235000   -18.9987500   -10.8832000   -5.5257630    129.5359000   
13300000000   -3.5236240    106.7497000   0.9224243     -69.4178600   -18.9436600   -13.5222000   -5.5183620    126.4549000   
13350000000   -3.5076880    103.7842000   0.8388973     -72.5714200   -18.9286900   -16.1726900   -5.4585780    123.4674000   
13400000000   -3.4986750    100.7114000   0.7850375     -75.8920600   -18.8796100   -18.8692800   -5.4545050    120.4219000   
13450000000   -3.4754920    97.7308000    0.7153826     -79.0517900   -18.8501400   -21.5002700   -5.3916510    117.4069000   
13500000000   -3.4629630    94.7330500    0.6436360     -82.2526000   -18.8268500   -24.1607100   -5.3677840    114.5150000   
13550000000   -3.4650250    91.7022600    0.5751550     -85.5279600   -18.8012500   -26.8062700   -5.3252830    111.4251000   
13600000000   -3.4438040    88.5952700    0.5053280     -88.6335300   -18.7350300   -29.5314700   -5.3058260    108.3965000   
13650000000   -3.4381970    85.7023800    0.4472695     -91.9755400   -18.7221100   -32.1487700   -5.2657650    105.3846000   
13700000000   -3.4246140    82.6346500    0.3740128     -95.0217100   -18.6613000   -34.7898600   -5.2381300    102.3876000   
13750000000   -3.4236270    79.6698800    0.3097548     -98.3694000   -18.6356400   -37.5680000   -5.2074510    99.3362900    
13800000000   -3.4145470    76.5771500    0.2433090     -101.5123000  -18.5858200   -40.2649000   -5.1720680    96.2862300    
13850000000   -3.3995060    73.5402100    0.1869633     -104.7099000  -18.5116500   -43.0274900   -5.1670020    93.2021600    
13900000000   -3.3960570    70.5023700    0.1214399     -107.9588000  -18.4909200   -45.7545500   -5.1164580    90.1296800    
13950000000   -3.3712680    67.4812500    0.0557454     -111.1625000  -18.4281300   -48.4586600   -5.0950140    87.2126800    
14000000000   -3.3610320    64.5361000    -0.0052851    -114.3959000  -18.4039200   -51.1650900   -5.0511470    84.1127200    
14050000000   -3.3440360    61.3920900    -0.0720537    -117.5413000  -18.3516400   -53.9002400   -5.0309960    81.1014200    
14100000000   -3.3352300    58.4491000    -0.1349240    -120.8305000  -18.3278900   -56.6775600   -4.9837330    78.0992100    
14150000000   -3.3383490    55.3855200    -0.1922236    -123.9782000  -18.2513900   -59.5196300   -4.9748060    74.9363900    
14200000000   -3.3270460    52.3947000    -0.2570798    -127.2076000  -18.2182900   -62.1971500   -4.9375570    72.0077400    
14250000000   -3.3173690    49.3159000    -0.3133577    -130.4342000  -18.1673400   -65.0085100   -4.9088680    68.9038100    
14300000000   -3.3106310    46.3536600    -0.3880067    -133.6284000  -18.1375600   -67.8509300   -4.8694600    65.8811000    
14350000000   -3.2955420    43.2715400    -0.4359120    -136.8809000  -18.0784200   -70.6320000   -4.8427010    62.7945500    
14400000000   -3.2885380    40.2508800    -0.4951628    -139.9774000  -18.0218800   -73.4520300   -4.8261080    59.7075700    
14450000000   -3.2802760    37.2245100    -0.5634148    -143.3080000  -18.0183900   -76.1279100   -4.7698360    56.8338600    
14500000000   -3.2778480    34.1806700    -0.6287172    -146.5242000  -17.9621300   -78.9642600   -4.7450490    53.6990400    
14550000000   -3.2671360    31.1329900    -0.6967863    -149.6520000  -17.9170600   -81.8081000   -4.7281580    50.6295100    
14600000000   -3.2519730    28.1462900    -0.7572250    -152.8301000  -17.8911400   -84.4907600   -4.6877990    47.5818700    
14650000000   -3.2602200    25.1190000    -0.8032857    -156.0469000  -17.8322800   -87.3985700   -4.6817580    44.4509900    
14700000000   -3.2513090    22.0555300    -0.8618414    -159.2678000  -17.7949000   -90.1092600   -4.6512440    41.3444600    
14750000000   -3.2426790    18.9463200    -0.9243558    -162.5489000  -17.7442200   -92.8966800   -4.6210770    38.2829700    
14800000000   -3.2379500    15.8931000    -0.9927414    -165.7614000  -17.7187700   -95.6704700   -4.5893620    35.1704200    
14850000000   -3.2324490    12.8324900    -1.0623980    -168.8619000  -17.6671900   -98.4304400   -4.5566430    32.1616300    
14900000000   -3.2289150    9.8389250     -1.1124330    -172.1425000  -17.6251100   -101.2528000  -4.5405530    29.0914800    
14950000000   -3.2244650    6.7355940     -1.1705660    -175.2523000  -17.5742000   -104.0386000  -4.5191210    25.9456100    
15000000000   -3.1970320    3.6762220     -1.2264130    -178.5034000  -17.5326400   -106.8669000  -4.4884390    22.9159400    
15050000000   -3.1970860    0.6464771     -1.2938350    178.2621000   -17.4865900   -109.6443000  -4.4545580    19.7302500    
15100000000   -3.1920950    -2.4844940    -1.3464310    175.0914000   -17.4401500   -112.4379000  -4.4423210    16.7044800    
15150000000   -3.1870500    -5.4984640    -1.4216510    171.8274000   -17.4076700   -115.2490000  -4.4013200    13.5653000    
15200000000   -3.1863620    -8.6534760    -1.4693670    168.5846000   -17.3463300   -118.1230000  -4.4007180    10.4362800    
15250000000   -3.1853530    -11.7216800   -1.5294160    165.4243000   -17.3049000   -120.8778000  -4.3632130    7.3034940     
15300000000   -3.1817070    -14.7909600   -1.6044230    162.2569000   -17.2627100   -123.6322000  -4.3320130    4.2729580     
15350000000   -3.1727940    -17.8481300   -1.6567250    158.9392000   -17.2207200   -126.4307000  -4.3130030    1.1101170     
15400000000   -3.1745020    -21.0338200   -1.7199840    155.8437000   -17.1551600   -129.2706000  -4.2841840    -1.9257990    
15450000000   -3.1697840    -24.0685400   -1.7660050    152.5476000   -17.1168900   -132.0344000  -4.2707390    -5.0588880    
15500000000   -3.1703800    -27.1880700   -1.8437010    149.4185000   -17.0665300   -134.8719000  -4.2302590    -8.0944870    
15550000000   -3.1658740    -30.2147000   -1.9048890    146.1627000   -17.0092800   -137.7720000  -4.2275480    -11.2531100   
15600000000   -3.1610660    -33.4447000   -1.9741510    142.9416000   -16.9761200   -140.5849000  -4.1783700    -14.3486000   
15650000000   -3.1552160    -36.4212000   -2.0213380    139.8416000   -16.9014400   -143.4174000  -4.1862930    -17.4169500   
15700000000   -3.1617200    -39.6141000   -2.1034100    136.5555000   -16.8805700   -146.2541000  -4.1301050    -20.5645500   
15750000000   -3.1563700    -42.6960000   -2.1366310    133.3330000   -16.7980700   -149.2502000  -4.1417480    -23.7298000   
15800000000   -3.1677910    -45.7863200   -2.2108330    130.1436000   -16.7578800   -152.0461000  -4.0998560    -26.8584600   
15850000000   -3.1628230    -48.9448900   -2.2719430    126.9070000   -16.7156900   -154.9349000  -4.0920330    -29.9076300   
15900000000   -3.1639710    -51.9757700   -2.3373820    123.7459000   -16.6615900   -157.7586000  -4.0569240    -33.0363300   
15950000000   -3.1597460    -55.3089100   -2.3997430    120.4978000   -16.6185000   -160.7274000  -4.0412490    -36.1605300   
16000000000   -3.1716900    -58.2279600   -2.4626360    117.2756000   -16.5714700   -163.5415000  -4.0318980    -39.3367200   
16050000000   -3.1579060    -61.5402000   -2.5213300    114.0177000   -16.5192100   -166.4534000  -3.9955500    -42.4183200   
16100000000   -3.1544090    -64.5806600   -2.5769510    110.8055000   -16.4719500   -169.3929000  -3.9854200    -45.5561400   
16150000000   -3.1693340    -67.7924000   -2.6353720    107.5516000   -16.4204200   -172.2375000  -3.9700060    -48.6784600   
16200000000   -3.1590990    -70.9173700   -2.7036030    104.3650000   -16.3645300   -175.1543000  -3.9545930    -51.8787900   
16250000000   -3.1730640    -74.1168400   -2.7695320    101.1294000   -16.3187600   -178.0232000  -3.9303110    -54.9566900   
16300000000   -3.1668640    -77.2155500   -2.8325100    97.9215500    -16.2569900   179.0344000   -3.9234360    -58.1823200   
16350000000   -3.1686630    -80.3971600   -2.9069060    94.7459100    -16.2234700   176.1994000   -3.8876800    -61.2782500   
16400000000   -3.1770260    -83.5891000   -2.9707740    91.4935200    -16.1825700   173.3380000   -3.8752980    -64.4059200   
16450000000   -3.1772530    -86.8128700   -3.0210780    88.2901800    -16.1142000   170.3453000   -3.8518670    -67.6070100   
16500000000   -3.1704040    -89.9580000   -3.1030250    85.0333100    -16.0663700   167.4116000   -3.8407670    -70.7371400   
16550000000   -3.1825130    -93.1130700   -3.1570270    81.7983200    -16.0088700   164.5312000   -3.8158550    -73.9566900   
16600000000   -3.1832640    -96.3476800   -3.2283920    78.5574700    -15.9675900   161.4824000   -3.7983810    -77.1159900   
16650000000   -3.1869840    -99.5383300   -3.2818220    75.3348700    -15.8963600   158.5056000   -3.8039230    -80.3291700   
16700000000   -3.1908510    -102.8600000  -3.3581570    72.0889800    -15.8600100   155.6022000   -3.7685930    -83.4118400   
16750000000   -3.1919130    -105.9543000  -3.4121680    68.8883000    -15.8010700   152.6485000   -3.7730000    -86.6416400   
16800000000   -3.1885130    -109.2265000  -3.4892640    65.6738700    -15.7559300   149.7340000   -3.7409390    -89.7708300   
16850000000   -3.2036450    -112.3615000  -3.5531740    62.4153100    -15.6994400   146.7348000   -3.7231220    -92.9895400   
16900000000   -3.1969000    -115.6596000  -3.6097910    59.2805600    -15.6453600   143.7458000   -3.7205090    -96.1728000   
16950000000   -3.1961160    -118.7704000  -3.6877280    56.0070800    -15.6143100   140.7686000   -3.7006040    -99.4345200   
17000000000   -3.2069590    -122.0353000  -3.7367060    52.7479300    -15.5462700   137.7474000   -3.7048590    -102.6571000  
17050000000   -3.2053640    -125.4018000  -3.8173650    49.5462600    -15.5032000   134.7857000   -3.6906260    -105.8765000  
17100000000   -3.2224820    -128.5087000  -3.8957070    46.2747000    -15.4541000   131.8303000   -3.6627700    -109.1296000  
17150000000   -3.2294180    -131.8675000  -3.9617090    42.9763000    -15.4116000   128.6763000   -3.6739410    -112.4498000  
17200000000   -3.2343600    -135.0992000  -4.0387910    39.8171800    -15.3701700   125.7222000   -3.6455720    -115.6625000  
17250000000   -3.2342630    -138.2802000  -4.1088070    36.5799800    -15.3180100   122.7223000   -3.6428680    -118.9221000  
17300000000   -3.2335940    -141.5714000  -4.1786740    33.3534900    -15.2784900   119.7228000   -3.6271100    -122.1945000  
17350000000   -3.2348860    -144.8902000  -4.2436850    30.1073500    -15.2325800   116.7082000   -3.6182440    -125.3978000  
17400000000   -3.2413820    -148.1952000  -4.3279780    26.9015300    -15.1875800   113.6384000   -3.5892240    -128.8003000  
17450000000   -3.2494360    -151.4279000  -4.4123050    23.6351500    -15.1518900   110.6845000   -3.5950370    -131.9310000  
17500000000   -3.2646540    -154.7003000  -4.4887790    20.3120700    -15.1093400   107.5567000   -3.5767530    -135.3848000  
17550000000   -3.2524900    -158.0458000  -4.5464390    17.0990100    -15.0657300   104.5172000   -3.5775750    -138.5788000  
17600000000   -3.2506640    -161.2681000  -4.6294050    13.8844700    -15.0209200   101.5617000   -3.5545010    -141.8214000  
17650000000   -3.2615110    -164.5233000  -4.7102560    10.7364000    -14.9745100   98.4638200    -3.5599790    -145.1695000  
17700000000   -3.2526450    -167.8487000  -4.7766870    7.3944390     -14.9349300   95.3657000    -3.5460860    -148.5848000  
17750000000   -3.2584920    -171.1482000  -4.8627930    4.1583650     -14.8826100   92.2597200    -3.5305900    -151.9494000  
17800000000   -3.2429880    -174.5006000  -4.9335650    0.9044531     -14.8528300   89.1512600    -3.5206370    -155.3822000  
17850000000   -3.2437900    -177.7833000  -5.0078400    -2.3079470    -14.8109300   86.1375000    -3.4947520    -158.5912000  
17900000000   -3.2420230    179.0102000   -5.0878310    -5.6026560    -14.7602600   83.0325800    -3.4984900    -162.0562000  
17950000000   -3.2648130    175.6695000   -5.1813450    -8.7003200    -14.7402500   80.0769400    -3.4555510    -165.2715000  
18000000000   -3.2508070    172.4864000   -5.2553290    -11.9290100   -14.6882100   76.9640200    -3.4730960    -168.6284000  
18050000000   -3.2556540    168.9986000   -5.3461800    -15.2714400   -14.6709600   73.7569200    -3.4337020    -172.1726000  
18100000000   -3.2316830    165.6833000   -5.3995550    -18.4928200   -14.6152700   70.6059600    -3.4446750    -175.4057000  
18150000000   -3.2451430    162.4084000   -5.5004740    -21.7233700   -14.5902100   67.5398000    -3.4233610    -178.8383000  
18200000000   -3.2308150    159.1048000   -5.5902610    -24.9900100   -14.5540100   64.4390000    -3.4209510    177.8533000   
18250000000   -3.2295060    155.7687000   -5.6672100    -28.1614200   -14.5116600   61.3621500    -3.3983120    174.4257000   
18300000000   -3.2069180    152.3952000   -5.7469720    -31.4302900   -14.4742900   58.2647600    -3.3746080    171.1053000   
18350000000   -3.2100490    149.1962000   -5.8392620    -34.6648600   -14.4449000   55.1647400    -3.3688490    167.6945000   
18400000000   -3.1923070    145.8627000   -5.9353560    -37.8439900   -14.4082300   52.0438500    -3.3596210    164.3348000   
18450000000   -3.1953690    142.6889000   -6.0087260    -41.1423800   -14.3817700   48.9378100    -3.3439600    160.8051000   
18500000000   -3.1896460    139.2838000   -6.1015630    -44.3644100   -14.3497500   45.8363000    -3.3251370    157.4748000   
18550000000   -3.1769210    135.9420000   -6.1768800    -47.6910000   -14.3168100   42.6286100    -3.3049190    153.9306000   
18600000000   -3.1654130    132.5909000   -6.2651420    -50.9044300   -14.2790500   39.5311800    -3.2796750    150.6076000   
18650000000   -3.1641350    129.2851000   -6.3723000    -54.1303900   -14.2496600   36.3644500    -3.2632220    147.1074000   
18700000000   -3.1604690    125.8838000   -6.4752410    -57.3620400   -14.2385500   33.2216000    -3.2439300    143.8256000   
18750000000   -3.1297620    122.7385000   -6.5545950    -60.5117800   -14.1960500   30.1271500    -3.2439790    140.4085000   
18800000000   -3.1211240    119.3135000   -6.6419030    -63.7351900   -14.1660900   26.9778000    -3.1975600    136.9763000   
18850000000   -3.1027400    116.0099000   -6.7169840    -66.9258500   -14.1299700   23.8186900    -3.1982720    133.6703000   
18900000000   -3.0917550    112.4879000   -6.8236370    -70.2276500   -14.1104600   20.6443300    -3.1601760    130.1333000   
18950000000   -3.0647310    109.3299000   -6.9215180    -73.4228300   -14.0975200   17.4419700    -3.1579470    126.7710000   
19000000000   -3.0694900    105.8695000   -7.0331130    -76.8041500   -14.0770600   14.3228100    -3.1305330    123.3270000   
19050000000   -3.0397980    102.6106000   -7.1316800    -79.8710300   -14.0484000   11.1891100    -3.1075070    120.0864000   
19100000000   -3.0678620    99.2586200    -7.2368130    -83.0788500   -14.0357300   8.0470450     -3.1038440    116.6809000   
19150000000   -3.0236220    95.7543900    -7.3371680    -86.3189400   -14.0085200   4.8254380     -3.0810270    113.3364000   
19200000000   -3.0149660    92.3892000    -7.4464630    -89.4397700   -13.9943500   1.6798510     -3.0545700    109.8843000   
19250000000   -2.9551840    89.0720400    -7.5682450    -92.6398500   -14.0037200   -1.5108420    -3.0476510    106.5695000   
19300000000   -2.9576590    86.3868200    -7.6537590    -95.8876700   -13.9719900   -4.5550910    -3.0309810    103.0427000   
19350000000   -2.9784650    82.7392300    -7.7424280    -98.9829800   -13.9390600   -7.6666360    -3.0031860    99.7742800    
19400000000   -2.9564980    79.3031200    -7.8726900    -102.3079000  -13.9399500   -10.9083600   -2.9955710    96.3852500    
19450000000   -2.9439150    75.8590900    -7.9728180    -105.5100000  -13.9153000   -14.1523600   -2.9553140    92.9110300    
19500000000   -2.9101400    72.4746900    -8.0774260    -108.6730000  -13.9199700   -17.3340500   -2.9411870    89.6133700    
19550000000   -2.8966130    69.3019600    -8.2071220    -111.7363000  -13.9135000   -20.3661300   -2.8999480    86.4346900    
19600000000   -2.8893230    65.9940900    -8.3023940    -114.8429000  -13.8848400   -23.5598900   -2.9149570    83.2161900    
19650000000   -2.8477180    62.4094100    -8.4021540    -118.0484000  -13.8785000   -26.7381900   -2.8912870    79.6266800    
19700000000   -2.8126620    59.3450300    -8.5417380    -121.1631000  -13.8768400   -29.8813000   -2.8554980    76.3667800    
19750000000   -2.8238510    55.9976300    -8.6513040    -124.3349000  -13.8736900   -32.9597200   -2.8413450    73.1261100    
19800000000   -2.8049630    52.8042100    -8.7690180    -127.5136000  -13.8621000   -36.1224600   -2.8290510    69.7764100    
19850000000   -2.8176590    49.4020200    -8.8925370    -130.6117000  -13.8454300   -39.3722000   -2.8007110    66.3693200    
19900000000   -2.7804290    45.9564600    -9.0276580    -133.6880000  -13.8600800   -42.5051800   -2.7764130    63.1283300    
19950000000   -2.7618050    42.8209200    -9.1401890    -136.8363000  -13.8458700   -45.5739000   -2.7547310    59.9738100    
20000000000   -2.7403400    39.3578800    -9.2342250    -140.0109000  -13.8456100   -48.7640000   -2.7398650    56.6727800    
